Timestamp,AccX,AccY,AccZ,GyroX,GyroY,GyroZ,AngX,AngY,AngZ,MagX,MagY,MagZ,Tag
0,0.1362305,0.8881836,-0.4570313,-5.004883,5.187988,-6.469727,122.3602,-1.175537,6.520386,15.41667,-7.55,-1.033333,1
1261,0.07128906,0.9091796999999999,-0.38720699999999997,2.929688,-3.112793,-4.211426,117.9657,0.2087402,6.707153,50.75834,-83.79166,65.425,1
1520,0.07421875,0.8623046999999999,-0.4331055,5.004883,2.13623,2.929688,117.8119,0.1043701,6.064453,15.40833,-6.908333,1.033333,1
1780,0.1191406,0.9174804999999999,-0.3925781,2.380371,-2.563477,3.234863,118.6798,-0.5548096,5.685425,14.90833,-7.983333,0.3916667,1
1980,0.137207,0.9023437999999999,-0.4023438,0.06103516,1.708984,-0.9155272999999999,118.4216,-0.9942626999999999,5.471191,15.48333,-6.8,-0.1666667,1
2190,0.11083979999999999,0.8964844,-0.421875,-2.807617,-6.896973,-0.7324219,118.0042,-1.235962,5.641479,15.43333,-6.883333,0.325,1
2380,0.11083979999999999,0.9023437999999999,-0.409668,0.6103516,2.319336,-1.586914,118.0151,-1.241455,5.674438,15.35,-7.266667,0.3083333,1
2600,0.1289063,0.9091796999999999,-0.41113279999999996,0.793457,-1.708984,-0.6713867,118.1195,-1.697388,5.872192,15.45,-7.241667,-0.1666667,1
2900,0.09326172,0.9179687999999999,-0.4082031,-5.67627,2.01416,-0.3662109,117.2131,-1.911621,6.317139,15.53333,-6.741667,-0.9500000000000001,1
3210,0.1235352,0.9047852,-0.3666992,-1.586914,-7.751465,-0.8544921999999999,115.2466,-2.026978,4.954834,15.575,-6.308333,0.17500000000000002,1
3510,0.1337891,0.9082030999999999,-0.38720699999999997,4.638672,-4.760742,-1.953125,115.73,-1.521606,3.323364,50.825,-84.69167,64.06667,1
3810,0.09912109000000001,0.8940429999999999,-0.40283199999999997,3.662109,0.9155272999999999,-2.685547,116.4606,-1.296387,3.493652,15.325,-7.141667,0.6916667,1
4110,0.1103516,0.8959961,-0.4233398,-1.098633,-4.272461,0.9765625,117.2516,-1.669922,3.834229,50.85,-83.66666,65.5,1
4410,0.1123047,0.9003905999999999,-0.4248047,0.24414059999999999,0.9765625,-0.9155272999999999,117.323,-1.96106,3.55957,50.65,-83.61667,65.39167,1
4670,0.12060549999999999,0.8925780999999999,-0.4213867,0.3051758,1.89209,-0.3662109,117.2021,-2.208252,3.817749,15.2,-7.208333,-0.1333333,1
4920,0.128418,0.8955078,-0.4135742,-0.3051758,-0.24414059999999999,-0.7324219,116.7572,-2.521362,3.78479,50.275,-83.975,65.49167,1
5190,0.1259766,0.8891602,-0.4091797,2.258301,-0.793457,-1.403809,116.6418,-2.614746,3.80127,15.35,-7.0,0.2166667,1
5470,0.1289063,0.8959961,-0.4291992,1.7700200000000001,-0.7324219,-0.8544921999999999,117.1582,-2.680664,3.817749,15.225,-7.333333,0.2583333,1
5670,0.1254883,0.8930663999999999,-0.4301758,1.708984,-0.5493163999999999,-0.6103516,117.4438,-2.746582,3.828735,15.13333,-7.475,0.3833333,1
5860,0.1293945,0.890625,-0.4448242,1.708984,-0.06103516,-0.5493163999999999,117.9163,-2.823486,3.944092,15.075,-7.508333,0.03333333,1
6070,0.12695309999999999,0.8833008,-0.4482422,-0.4882813,-1.159668,-0.24414059999999999,118.136,-2.839966,4.059448,15.05833,-7.375,-0.01666667,1
6280,0.1259766,0.8867187999999999,-0.4326172,-0.42724609999999996,-0.12207029999999999,0.1831055,118.0042,-2.949829,4.053955,15.15,-7.516667,0.1083333,1
6500,0.1474609,0.8891602,-0.42626949999999997,0.42724609999999996,1.464844,-2.807617,117.9272,-3.273926,4.147339,49.71667,-83.51667,66.55833,1
6740,0.1303711,0.890625,-0.4526367,-0.9765625,4.150391,-6.164551,118.1689,-2.839966,5.174561,15.40833,-7.533333,-0.6416666999999999,1
7020,0.09521484000000001,0.8984375,-0.43457029999999996,-10.98633,6.164551,-2.075195,117.2571,-2.625732,6.740112,15.63333,-7.0,-1.75,1
7230,0.140625,0.9252929999999999,-0.34033199999999997,-9.887695,0.9765625,1.6479489999999999,113.4229,-3.158569,6.663208,49.13334,-85.9,64.18333,1
7470,0.1416016,0.9257812999999999,-0.3115234,-4.760742,-1.953125,-1.098633,111.4453,-3.224487,6.47644,15.98333,-5.066667,-0.36666669999999996,1
7730,0.128418,0.8803711,-0.3115234,7.141113,3.417969,-1.159668,111.2036,-3.339844,7.250977,48.925,-86.63333,63.34167,1
7990,0.08837891,0.9174804999999999,-0.3515625,0.3662109,-2.258301,0.7324219,111.4893,-3.240967,7.196045,16.06667,-5.558333,0.6333333,1
8230,0.1455078,0.9389647999999999,-0.3388672,2.624512,1.89209,-2.197266,111.4124,-3.240967,6.800537,49.15,-86.525,63.31667,1
8540,0.121582,0.9121094,-0.2827148,-0.3051758,-1.525879,0.7324219,111.0168,-3.78479,7.020264,16.65833,-5.958333,0.8583333999999999,1
8880,0.1611328,0.9409179999999999,-0.3466797,-5.737305,0.5493163999999999,-1.159668,111.0718,-4.136353,6.70166,15.73333,-6.083333,0.2583333,1
9160,0.144043,0.9555663999999999,-0.3271484,4.150391,3.2958979999999998,-3.417969,111.0333,-4.207764,6.904907,16.05833,-4.916667,0.1916667,1
9470,0.11621089999999999,0.9228516,-0.38134769999999996,-1.464844,-4.211426,0.0,111.4453,-4.169312,6.871948,16.04167,-5.783333,-0.1666667,1
9800,0.125,0.9238280999999999,-0.3632813,1.037598,1.6479489999999999,0.9765625,111.3354,-4.01001,6.465454,15.45,-5.8,-0.06666667,1
10030,0.1367188,0.9213867,-0.32617189999999996,1.953125,0.4882813,-1.953125,110.9949,-3.988037,6.383057,15.9,-5.591667,0.1416667,1
10250,0.13476559999999999,0.9223633,-0.3208008,0.06103516,-0.42724609999999996,-0.1831055,110.9619,-4.020996,6.399536,48.75834,-86.65,63.63334,1
10530,0.1401367,0.9233397999999999,-0.33349609999999996,1.525879,-0.06103516,-0.9765625,110.9729,-4.163818,6.437988,15.94167,-5.716667,0.15,1
10730,0.1435547,0.9301758,-0.3383789,-0.24414059999999999,-1.464844,-0.4882813,111.1542,-4.345093,6.421509,48.64167,-86.45834,63.525,1
10970,0.1401367,0.9282227,-0.34082029999999996,-0.4882813,-0.42724609999999996,-1.7700200000000001,111.1926,-4.312134,6.311646,15.991670000000001,-5.825,-0.075,1
11260,0.144043,0.9321288999999999,-0.33398439999999996,-0.1831055,-0.3662109,-1.8310549999999999,111.0938,-4.136353,6.289673,48.95,-86.475,63.625,1
11540,0.1293945,0.921875,-0.3295898,0.1831055,0.3051758,-0.9765625,110.9674,-4.064941,6.427002,48.86666,-86.38333,63.74166,1
11830,0.1386719,0.9277344,-0.3305664,1.403809,-0.3051758,-0.793457,110.9454,-4.185791,6.443481,15.85,-5.741667,0.06666667,1
12080,0.140625,0.9277344,-0.3378906,0.7324219,-0.6103516,-0.9765625,110.9949,-4.251709,6.410522,48.85833,-86.43333,63.75,1
12350,0.1416016,0.934082,-0.3388672,-0.24414059999999999,-0.6103516,-0.9765625,111.0168,-4.224243,6.339111,48.85,-86.35,63.75,1
12650,0.1401367,0.9335937999999999,-0.3393555,0.42724609999999996,-0.793457,-1.037598,111.0059,-4.224243,6.328125,15.91667,-5.833333,0.06666667,1
12900,0.14306639999999998,0.9355469,-0.3398438,0.3051758,-0.6103516,-0.8544921999999999,111.0333,-4.251709,6.28418,48.95833,-86.35,63.86666,1
13180,0.1396484,0.9282227,-0.3369141,0.0,-0.42724609999999996,-0.9765625,110.9949,-4.240723,6.234741,15.9,-5.766667,-0.008333334000000001,1
13510,0.1401367,0.9306641,-0.3383789,0.0,-0.42724609999999996,-0.6713867,110.9839,-4.290161,6.218262,15.84167,-5.791667,0.0,1
13780,0.1386719,0.9301758,-0.34179689999999996,0.6713867,-0.4882813,-0.8544921999999999,110.929,-4.328613,6.207275,15.95833,-5.85,0.025,1
14150,0.1445313,0.9291992,-0.3388672,0.9765625,-0.4882813,-1.586914,110.9784,-4.251709,6.141357,48.90833,-86.25,63.73333,1
14390,0.1459961,0.9301758,-0.3383789,0.3051758,0.06103516,-1.037598,111.0168,-4.240723,6.135864,15.825,-5.875,-0.09166667,1
14670,0.1381836,0.9316405999999999,-0.3388672,0.1831055,-0.3662109,-0.9765625,111.0333,-4.251709,6.119385,15.875,-5.841667,0.125,1
14870,0.144043,0.9238280999999999,-0.3388672,1.586914,-0.42724609999999996,-1.037598,111.1871,-4.2462159999999995,6.119385,15.75833,-5.975,0.1,1
15080,0.14257809999999999,0.9355469,-0.347168,-0.12207029999999999,-1.464844,-0.7324219,111.3849,-4.229736,5.998535,49.025,-86.00833,64.29166,1
15320,0.1230469,0.9267578,-0.3525391,0.1831055,-0.24414059999999999,-1.037598,111.33,-4.257202,6.108398,15.80833,-5.816667,0.17500000000000002,1
15570,0.1411133,0.9257812999999999,-0.3544922,0.24414059999999999,-0.6103516,-1.342773,111.4233,-4.136353,5.894165,49.025,-85.75833,64.075,1
15820,0.1357422,0.9208984,-0.34912109999999996,0.5493163999999999,-0.9765625,-1.7700200000000001,111.5607,-3.9935300000000002,5.839233,15.775,-6.033333,-0.05833333,1
16090,0.1298828,0.9262695,-0.3520508,-0.9765625,-0.5493163999999999,-0.8544921999999999,111.5002,-3.90564,5.778809,49.19167,-85.7,64.125,1
16400,0.125,0.9277344,-0.3525391,-5.249023,-1.708984,-1.7700200000000001,110.7532,-3.817749,5.701904,15.96667,-5.383333,0.1416667,1
17690,0.1328125,0.9296875,-0.32568359999999996,0.1831055,0.4882813,-0.06103516,109.9951,-3.850708,5.449219,15.875,-5.575,0.3416667,1
17920,0.1386719,0.9345703,-0.33398439999999996,1.281738,-3.417969,-0.7324219,110.462,-3.988037,5.097656,16.11667,-6.025,-0.05,1
18200,0.09228516,0.9384766,-0.3208008,-1.464844,0.9155272999999999,-1.342773,110.2313,-3.933105,6.152344,49.325,-86.3,63.7,1
18460,0.1376953,0.9331054999999999,-0.3276367,0.3662109,-3.845215,-0.1831055,110.05,-3.839722,5.548096,15.85833,-5.691667,0.125,1
18740,0.11669919999999999,0.9355469,-0.32568359999999996,2.990723,-0.9155272999999999,-2.624512,110.3412,-3.66394,5.762329,15.63333,-5.191667,1.175,1
19020,0.13476559999999999,0.9331054999999999,-0.3789063,1.525879,3.78418,1.89209,111.4178,-3.647461,5.839233,49.35833,-85.54166,64.475,1
19300,0.17382809999999999,0.9082030999999999,-0.3310547,0.8544921999999999,-6.896973,5.187988,110.9235,-5.39978,5.19104,48.075,-86.51667,63.975,1
19630,0.1572266,0.9130859,-0.359375,3.540039,-0.9155272999999999,-3.051758,111.5332,-5.542603,4.174805,15.575,-5.95,0.2916667,1
19890,0.15087889999999998,0.9179687999999999,-0.3691406,-2.01416,-2.502441,-6.103516,111.8738,-4.8614500000000005,4.32312,15.95,-6.366667,0.08333334,1
20110,0.14257809999999999,0.8964844,-0.3603516,-5.92041,0.24414059999999999,-2.685547,112.7582,-3.795776,5.042725,15.88333,-6.525,0.2,1
20380,0.1201172,0.9282227,-0.3662109,3.845215,-0.9765625,-2.258301,113.1702,-3.460693,5.339355,15.30833,-6.275,1.358333,1
20600,0.1396484,0.9067383,-0.42773439999999996,7.019043,-5.432129,-0.6103516,115.5707,-2.285156,5.07019,50.45833,-82.83334,66.59167,1
20830,0.1015625,0.9052734,-0.4467773,14.34326,-1.098633,0.8544921999999999,117.4768,-2.241211,5.273438,14.80833,-7.883333,1.158333,1
21110,0.1303711,0.8886719,-0.456543,9.033203,-3.051758,-0.42724609999999996,119.6136,-1.983032,5.020752,14.70833,-8.208333,1.158333,1
21330,0.09667969,0.855957,-0.49072269999999996,6.408691,-0.793457,-2.929688,121.4099,-1.384277,5.092163,14.70833,-8.708333,1.075,1
21540,0.08691406,0.8496094,-0.5327147999999999,5.126953,-3.417969,-1.403809,123.8104,-0.6866455,5.317383,51.31667,-78.3,70.05833,1
21790,0.08837891,0.8515625,-0.5292969,3.356934,-2.502441,-0.7324219,124.6948,-0.1757813,4.916382,14.16667,-9.5,0.6083333,1
22030,0.09667969,0.8413086,-0.5532227,1.6479489999999999,0.6103516,-0.9765625,125.8539,0.1098633,4.998779,14.16667,-9.6,0.375,1
22330,0.09521484000000001,0.8320312999999999,-0.5273438,-2.258301,-2.502441,-1.037598,126.3593,0.2197266,5.674438,51.48333,-77.29166,70.73333,1
22640,0.07324219,0.8198242,-0.5644530999999999,0.3051758,1.7700200000000001,-2.502441,126.7932,0.368042,6.289673,14.525,-9.216666,0.1,1
22970,0.06835938,0.8208008,-0.5498046999999999,1.953125,-2.13623,-1.159668,127.1228,0.6317138999999999,6.328125,14.075,-9.408334,-0.275,1
23240,0.11083979999999999,0.8388671999999999,-0.5390625,-1.403809,1.89209,-2.990723,127.1228,0.6427001999999999,6.624756,51.38334,-77.38333,70.79166,1
23520,0.08251953000000001,0.8237304999999999,-0.5449219,-0.9765625,0.06103516,-0.8544921999999999,127.1613,0.7141113,6.888428,14.15,-9.466666,0.1916667,1
23760,0.09179688,0.8320312999999999,-0.5571288999999999,0.12207029999999999,-0.42724609999999996,-1.342773,127.5787,0.8679199,7.047729,51.325,-77.23333,70.86667,1
24100,0.08544922,0.8271484,-0.5615234,-0.793457,-0.06103516,-0.9155272999999999,127.793,0.9942626999999999,7.305908,14.21667,-9.625,-0.1833333,1
24340,0.105957,0.8134766,-0.5581054999999999,-0.7324219,-0.793457,-0.793457,127.793,1.027222,7.630005,51.5,-77.28333,70.85833,1
24580,0.09277344,0.8310546999999999,-0.5537109,0.9155272999999999,-2.01416,-1.098633,127.8259,1.07666,7.816772,14.11667,-9.408334,0.125,1
24830,0.09228516,0.8222655999999999,-0.5595703,-0.1831055,-0.4882813,-0.9765625,128.1995,1.142578,8.036499,51.33333,-77.05,71.20834,1
25060,0.08496094,0.8237304999999999,-0.5556641,0.793457,-0.9765625,-0.7324219,128.3588,1.230469,8.179321,14.0,-9.508333,0.1833333,1
25350,0.09082031,0.824707,-0.5546875,1.8310549999999999,-0.06103516,-0.42724609999999996,128.6664,1.224976,8.261719,14.025,-9.833333,-0.01666667,1
25560,0.09033203000000001,0.8237304999999999,-0.5581054999999999,-1.953125,-0.3662109,-1.098633,128.6884,1.296387,8.300171,14.15,-9.483334,-0.3083333,1
25780,0.08691406,0.8256836,-0.5517578,-0.1831055,-0.793457,-0.6713867,128.4521,1.3348389999999999,8.574829,14.13333,-9.35,-0.05,1
26060,0.09179688,0.8232421999999999,-0.5522461,-1.037598,-0.3662109,-1.037598,128.4027,1.345825,8.849487,51.25834,-77.23333,70.93333,1
26330,0.08691406,0.8271484,-0.5541992,0.793457,-1.037598,-0.8544921999999999,128.4851,1.3623049999999999,9.074707,14.06667,-9.525,0.1,1
26570,0.09570313,0.8286133,-0.5561522999999999,0.24414059999999999,-0.3662109,-0.793457,128.606,1.450195,9.234009,51.35833,-77.15,70.80833,1
26870,0.08740234,0.8276367,-0.5600586,0.42724609999999996,-0.5493163999999999,-1.098633,128.7268,1.488647,9.470215,14.125,-9.466666,0.1,1
27210,0.09423828000000001,0.8271484,-0.5605469,-0.7324219,-0.12207029999999999,-0.9155272999999999,128.8202,1.5051269999999999,9.728394,14.0,-9.525,0.008333334000000001,1
27480,0.08300781,0.8251953,-0.5551758,0.4882813,-0.4882813,-0.7324219,128.8586,1.582031,9.970093,51.3,-77.075,71.00833,1
27760,0.09326172,0.8227538999999999,-0.5610352,-0.24414059999999999,-0.8544921999999999,-1.281738,128.941,1.587524,10.21729,51.325,-77.2,71.06667,1
28070,0.08740234,0.8261719,-0.5561522999999999,-0.8544921999999999,-0.9155272999999999,-1.037598,128.8422,1.604004,10.50842,51.23333,-77.11667,70.85,1
28400,0.09179688,0.8261719,-0.5581054999999999,-0.3662109,-0.6713867,-0.793457,128.7378,1.571045,10.77209,51.16667,-77.25833,71.01667,1
28650,0.09277344,0.8291016,-0.5507813,0.3662109,0.0,-1.037598,128.7048,1.560059,10.96436,14.14167,-9.458333,-0.008333334000000001,1
28850,0.08935547,0.8320312999999999,-0.5473633,-0.12207029999999999,-0.4882813,-0.9765625,128.7048,1.571045,11.13464,14.13333,-9.325,0.03333333,1
29060,0.1020508,0.8320312999999999,-0.5502929999999999,-0.06103516,-0.6713867,-1.037598,128.5071,1.543579,11.32141,51.15,-77.58334,70.75833,1
29300,0.09033203000000001,0.8315429999999999,-0.5454102,-0.6713867,-1.525879,-1.037598,128.3478,1.565552,11.52466,14.20833,-9.275,-0.01666667,1
29580,0.09228516,0.8344727,-0.546875,0.42724609999999996,0.0,-0.7324219,128.3807,1.604004,11.651,14.25,-9.325,0.008333334000000001,1
29790,0.1000977,0.8393554999999999,-0.5429688,0.3662109,-0.9765625,-1.098633,128.3972,1.593018,11.79932,14.23333,-9.341666,0.01666667,1
30010,0.09082031,0.8330078,-0.5429688,-0.06103516,0.12207029999999999,-0.793457,128.3917,1.609497,12.09045,14.2,-9.233334,0.08333334,1
30290,0.09033203000000001,0.8330078,-0.5512695,1.281738,-1.586914,-0.6103516,128.5291,1.609497,12.20581,51.18333,-77.44167,71.00833,1
30560,0.09179688,0.8261719,-0.5458984,1.6479489999999999,-0.6103516,-0.7324219,128.6499,1.609497,12.27173,14.2,-9.658334,0.6666667,1
30800,0.08105469,0.8291016,-0.5625,-0.24414059999999999,0.6713867,-0.6103516,128.9191,1.658936,12.58484,51.21667,-77.31667,71.025,1
31100,0.09619141,0.8310546999999999,-0.5483397999999999,0.1831055,-0.3662109,-1.098633,128.573,1.620483,12.79907,14.20833,-9.375,0.06666667,1
31400,0.09619141,0.8310546999999999,-0.5478516,0.42724609999999996,-1.098633,-1.220703,128.6444,1.636963,13.02429,51.275,-77.54166,70.95834,1
31680,0.09179688,0.8276367,-0.5488280999999999,-0.24414059999999999,-0.6713867,-1.037598,128.6938,1.642456,13.21106,14.1,-9.458333,0.15,1
31920,0.0859375,0.8271484,-0.5532227,-0.24414059999999999,-0.793457,-0.7324219,128.7433,1.63147,13.42529,14.15833,-9.408334,0.01666667,1
32230,0.09179688,0.8286133,-0.5498046999999999,0.24414059999999999,-0.42724609999999996,-0.9155272999999999,128.7268,1.63147,13.63403,14.08333,-9.358334,-0.01666667,1
32540,0.09619141,0.8330078,-0.5581054999999999,1.403809,-1.037598,-1.159668,128.7488,1.642456,13.84827,14.09167,-9.291667,0.1666667,1
32900,0.09326172,0.8300780999999999,-0.5498046999999999,0.1831055,-0.5493163999999999,-1.037598,128.7653,1.609497,14.17786,51.29167,-77.44167,70.85833,1
33170,0.09130859,0.828125,-0.5458984,0.1831055,-0.6103516,-0.9765625,128.7488,1.609497,14.34265,14.13333,-9.383333,0.025,1
34390,0.1025391,0.8295897999999999,-0.5517578,0.3662109,1.159668,-1.708984,128.7488,1.636963,15.26001,14.18333,-9.4,0.1416667,1
34600,0.09130859,0.8256836,-0.5498046999999999,0.6713867,-0.1831055,-0.793457,128.8641,1.521606,15.61707,14.15,-9.375,-0.04166667,1
34820,0.09277344,0.828125,-0.5532227,0.1831055,0.6103516,-0.6103516,128.9301,1.5271000000000001,15.80383,51.20833,-77.21667,71.15833,1
35060,0.08203125,0.8315429999999999,-0.5678711,-3.601074,1.403809,-0.3662109,128.6499,1.472168,16.05103,14.25,-9.183333,-0.36666669999999996,1
35310,0.09472656,0.8359375,-0.5263671999999999,-0.9765625,-0.24414059999999999,-1.220703,128.0237,1.543579,15.97412,14.11667,-9.15,-0.1833333,1
35520,0.07519531,0.8408203,-0.5371094,1.525879,0.24414059999999999,-1.525879,128.2104,1.697388,16.28723,51.425,-77.6,70.725,1
35790,0.07177734,0.8374022999999999,-0.5415038999999999,1.403809,-0.3662109,-0.5493163999999999,128.4906,1.71936,16.52344,14.13333,-9.275,0.1166667,1
36040,0.09472656,0.8388671999999999,-0.5498046999999999,0.793457,-0.1831055,-1.220703,128.6005,1.73584,16.57837,51.5,-77.4,70.76667,1
36320,0.08789063,0.8339844,-0.5429688,-0.1831055,-0.24414059999999999,-0.6103516,128.551,1.680908,16.869510000000002,51.40833,-77.45834,70.73333,1
36610,0.08349609,0.8359375,-0.5439453,-0.7324219,-0.6103516,-0.9155272999999999,128.5071,1.642456,17.04529,14.35,-9.358334,0.025,1
36850,0.09179688,0.8320312999999999,-0.5512695,0.3051758,-0.4882813,-1.037598,128.4961,1.63147,17.25403,51.35,-77.425,70.64167,1
37130,0.08105469,0.8295897999999999,-0.5415038999999999,-0.4882813,-0.06103516,-0.9765625,128.54,1.625977,17.52869,51.39167,-77.40833,70.91666,1
37440,0.08984375,0.8339844,-0.5507813,-0.1831055,-0.793457,-0.5493163999999999,128.573,1.582031,17.649540000000002,14.18333,-9.308333,0.1,1
37680,0.08935547,0.8344727,-0.5493163999999999,0.12207029999999999,-0.7324219,-0.8544921999999999,128.6005,1.571045,17.87476,14.08333,-9.2,0.025,1
37990,0.08447266,0.8320312999999999,-0.5512695,0.5493163999999999,-0.4882813,-0.9765625,128.7213,1.565552,18.08899,14.18333,-9.416667,0.05833333,1
38230,0.08740234,0.828125,-0.5488280999999999,-0.5493163999999999,-0.5493163999999999,-0.9155272999999999,128.7213,1.571045,18.23181,14.15,-9.416667,-0.05833333,1
38440,0.08789063,0.8276367,-0.5463867,-0.1831055,0.06103516,-0.8544921999999999,128.6279,1.565552,18.46252,51.26667,-77.45,70.98333,1
38680,0.09326172,0.8291016,-0.5375977,0.7324219,-0.1831055,-0.9155272999999999,128.6005,1.483154,18.69324,14.125,-9.341666,0.15833329999999998,1
38930,0.08984375,0.8374022999999999,-0.5498046999999999,0.06103516,-1.159668,-1.037598,128.7598,1.494141,18.86902,51.325,-77.325,71.29166,1
39160,0.09277344,0.824707,-0.5493163999999999,0.24414059999999999,-0.8544921999999999,-1.098633,128.7158,1.516113,19.00085,14.175,-9.333333,-0.03333333,1
39440,0.08886719,0.8344727,-0.5498046999999999,0.24414059999999999,-0.5493163999999999,-0.9155272999999999,128.7378,1.477661,19.16565,14.04167,-9.233334,-0.05,1
39660,0.09179688,0.8305663999999999,-0.5463867,-1.037598,-0.4882813,-1.037598,128.6938,1.5051269999999999,19.25903,14.225,-9.416667,-0.025,1
39870,0.09863281,0.8261719,-0.546875,-0.8544921999999999,-0.9765625,-1.342773,128.573,1.483154,19.46228,51.325,-77.46667,70.68333,1
40120,0.09033203000000001,0.8256836,-0.5458984,0.793457,-0.793457,-1.098633,128.595,1.4556879999999999,19.71497,14.075,-9.2,0.05,1
40360,0.08691406,0.8291016,-0.5566405999999999,1.708984,0.06103516,-0.6713867,128.7982,1.384277,19.92371,14.08333,-9.308333,0.1166667,1
40660,0.09667969,0.8320312999999999,-0.5556641,1.281738,-0.6103516,-1.342773,128.8092,1.417236,20.11597,51.31667,-77.25833,70.80833,1
40970,0.08691406,0.8310546999999999,-0.5527344,0.5493163999999999,-0.4882813,-0.9765625,128.8641,1.40625,20.4126,51.475,-77.25,70.925,1
41240,0.08837891,0.8286133,-0.5522461,0.3662109,-0.5493163999999999,-1.159668,128.8806,1.439209,20.54443,14.2,-9.408334,0.1333333,1
41490,0.09033203000000001,0.8222655999999999,-0.5551758,0.4882813,-1.037598,-0.9765625,128.996,1.483154,20.780640000000002,51.38334,-77.03333,70.99167,1
41800,0.08447266,0.8261719,-0.5581054999999999,-0.42724609999999996,-0.6103516,-0.9155272999999999,128.996,1.461182,21.02234,14.15833,-9.525,0.15,1
42090,0.08886719,0.8251953,-0.5517578,-0.24414059999999999,-1.037598,-0.9765625,128.9136,1.461182,21.23657,51.48333,-77.125,71.03333,1
42440,0.08642578000000001,0.8349609,-0.5507813,-0.4882813,-0.24414059999999999,-0.7324219,128.8916,1.411743,21.48926,13.98333,-9.366667,-0.15,1
42680,0.08154297,0.8334961,-0.5502929999999999,-1.098633,-0.42724609999999996,-0.9155272999999999,128.6829,1.367798,21.76392,51.425,-77.29166,70.75,1
42920,0.08935547,0.8295897999999999,-0.5483397999999999,0.3051758,-0.7324219,-0.793457,128.6224,1.351318,21.89575,14.125,-9.325,0.06666667,1
43160,0.08935547,0.8315429999999999,-0.5546875,1.525879,-0.42724609999999996,-0.9155272999999999,128.6554,1.389771,22.04956,51.4,-77.3,70.94167,1
43400,0.0859375,0.828125,-0.5507813,0.1831055,-0.9765625,-0.8544921999999999,128.6554,1.356812,22.21436,14.2,-9.366667,0.05833333,1
43680,0.08740234,0.8305663999999999,-0.5473633,0.6103516,-0.6713867,-0.8544921999999999,128.6938,1.356812,22.32971,14.125,-9.366667,0.075,1
43900,0.09277344,0.8320312999999999,-0.5541992,1.464844,-0.793457,-1.159668,128.7598,1.3623049999999999,22.51099,51.25834,-77.275,70.90833,1
44180,0.08789063,0.8286133,-0.5483397999999999,0.24414059999999999,-0.3662109,-0.793457,128.7982,1.323853,22.75269,51.48333,-77.325,71.075,1
44470,0.08691406,0.8286133,-0.5507813,0.12207029999999999,-0.4882813,-0.9765625,128.7872,1.307373,22.91199,14.125,-9.433333,-0.008333334000000001,1
44720,0.08496094,0.8222655999999999,-0.5473633,-0.6103516,0.0,-0.8544921999999999,128.7598,1.296387,23.13721,14.15833,-9.466666,-0.05,1
44990,0.08789063,0.8291016,-0.5512695,0.1831055,-0.6103516,-1.220703,128.7653,1.268921,23.40088,51.35833,-77.44167,70.7,1
45260,0.08642578000000001,0.8271484,-0.5463867,0.24414059999999999,-0.3662109,-1.159668,128.7378,1.246948,23.593140000000002,14.21667,-9.425,0.06666667,1
45530,0.09082031,0.8291016,-0.5556641,0.6103516,-0.3051758,-1.037598,128.7927,1.230469,23.8623,14.06667,-9.466666,0.1,1
45810,0.08642578000000001,0.8266602,-0.5541992,0.6103516,-0.6103516,-0.9765625,128.9026,1.230469,24.09302,51.4,-77.01667,70.91666,1
46090,0.08544922,0.8227538999999999,-0.5556641,1.037598,-1.281738,-0.8544921999999999,128.9136,1.30188,24.24133,51.43333,-77.10833,70.70834,1
46400,0.08740234,0.8300780999999999,-0.5522461,1.159668,0.0,-0.793457,128.8696,1.296387,24.46106,51.48333,-77.05,70.99167,1
46730,0.08935547,0.8344727,-0.5576171999999999,0.8544921999999999,-1.525879,-0.793457,128.996,1.323853,24.55994,51.43333,-76.98333,71.03333,1
46970,0.09179688,0.8154296999999999,-0.5517578,-0.24414059999999999,-0.4882813,-0.793457,128.9355,1.296387,24.6698,14.15,-9.55,-0.09166667,1
47180,0.08154297,0.8432617,-0.5488280999999999,0.7324219,-3.4790039999999998,-1.037598,128.952,1.241455,24.88403,14.025,-9.441667,-0.008333334000000001,1
47390,0.08447266,0.8242187999999999,-0.5439453,-1.586914,1.098633,-1.281738,128.8367,1.219482,25.13672,51.40833,-77.175,70.80833,1
47630,0.1137695,0.8476562999999999,-0.5292969,-0.4882813,-0.7324219,-0.24414059999999999,128.8586,1.252441,25.29602,14.68333,-9.6,0.325,1
47910,0.08837891,0.8217772999999999,-0.5678711,2.441406,-1.403809,-0.6103516,128.7817,1.1920169999999999,25.46631,14.0,-9.566667,0.2333333,1
48120,0.06494141,0.8237304999999999,-0.5874022999999999,4.577637,0.42724609999999996,-0.06103516,129.0234,0.9997558999999999,25.70801,14.11667,-9.733334,0.3083333,1
48340,0.09277344,0.8203125,-0.5307617,4.821777,-1.8310549999999999,-0.1831055,129.3695,1.098633,25.72998,13.95833,-10.26667,-0.1416667,1
48620,0.09619141,0.8217772999999999,-0.5415038999999999,0.6103516,-0.9765625,-1.525879,129.364,1.142578,25.89478,51.49166,-76.64167,71.49167,1
48890,0.08544922,0.809082,-0.5678711,-1.7700200000000001,0.06103516,-1.464844,129.3256,1.137085,26.07605,14.14167,-9.283334,-0.4,1
49130,0.08789063,0.8237304999999999,-0.5673828,0.12207029999999999,0.0,-0.9155272999999999,129.1663,1.137085,26.2793,51.38334,-76.96667,71.20834,1
49430,0.08544922,0.8305663999999999,-0.5419921999999999,1.525879,0.3662109,-1.281738,128.8916,1.164551,26.63086,51.55,-77.13333,71.1,1
50680,0.08496094,0.8276367,-0.559082,0.12207029999999999,-0.06103516,-1.220703,129.0234,1.109619,27.66357,14.15,-9.558333,0.03333333,1
50960,0.08544922,0.8237304999999999,-0.5576171999999999,-0.12207029999999999,-0.6103516,-1.098633,128.9465,1.060181,27.91077,51.46667,-76.925,71.05,1
51230,0.07373047,0.8237304999999999,-0.5615234,-0.24414059999999999,-0.5493163999999999,-0.6103516,128.8641,1.087646,28.22937,51.54167,-76.99167,71.1,1
51540,0.08642578000000001,0.8237304999999999,-0.5527344,1.098633,-0.6103516,-0.6103516,128.9191,1.043701,28.27881,14.09167,-9.55,0.1416667,1
51780,0.08203125,0.8261719,-0.5576171999999999,0.8544921999999999,-0.7324219,-0.9765625,129.0234,1.054688,28.53699,14.10833,-9.516666,0.05,1
52090,0.08935547,0.8251953,-0.5556641,0.06103516,-0.6103516,-0.9155272999999999,129.0015,1.021729,28.745730000000002,14.20833,-9.5,0.03333333,1
52330,0.08740234,0.8325195,-0.5546875,0.6713867,-0.5493163999999999,-1.159668,128.952,1.021729,28.899540000000002,14.075,-9.475,0.15,1
52540,0.08398438,0.8266602,-0.5541992,-0.3051758,-0.4882813,-0.8544921999999999,128.9081,0.9777832,29.13574,51.44167,-77.05833,70.95834,1
52780,0.08349609,0.8242187999999999,-0.5537109,-0.6103516,-0.12207029999999999,-0.9765625,128.8477,0.9613037,29.31152,14.15,-9.508333,0.1333333,1
53030,0.08740234,0.8222655999999999,-0.5551758,0.24414059999999999,-0.9765625,-1.037598,128.8477,0.9558105,29.52026,51.51667,-77.0,70.94167,1
53270,0.08935547,0.8261719,-0.5551758,0.06103516,-0.4882813,-0.8544921999999999,128.8531,0.9393311,29.66309,14.1,-9.441667,0.03333333,1
53550,0.08105469,0.8286133,-0.5541992,0.24414059999999999,-0.793457,-0.7324219,128.5565,0.7855225,29.71802,14.21667,-9.533334,0.05833333,1
53760,0.0859375,0.8256836,-0.5527344,0.9765625,-0.4882813,-1.098633,128.4851,0.7580566,29.83887,14.03333,-9.408334,0.05833333,1
53980,0.0859375,0.8251953,-0.5532227,0.42724609999999996,-0.3662109,-0.7324219,128.5675,0.736084,30.09155,14.075,-9.416667,0.03333333,1
54260,0.09130859,0.8271484,-0.559082,1.403809,-0.7324219,-1.342773,128.6169,0.7470703,30.34424,51.41667,-76.99167,71.24167,1
54520,0.08544922,0.8251953,-0.5561522999999999,-0.06103516,-0.9155272999999999,-0.9765625,128.6499,0.7305908,30.53101,14.13333,-9.383333,0.025,1
54760,0.08691406,0.8266602,-0.5517578,0.12207029999999999,-0.3662109,-1.159668,128.6389,0.7196045,30.80566,51.4,-76.85833,70.96667,1
55070,0.08642578000000001,0.8237304999999999,-0.5537109,0.12207029999999999,0.06103516,-0.9155272999999999,128.7103,0.7305908,31.00342,51.5,-77.04166,70.9,1
55340,0.08544922,0.8271484,-0.5556641,0.24414059999999999,-0.1831055,-0.6713867,128.7158,0.7250977,31.12976,14.11667,-9.466666,0.025,1
55590,0.08691406,0.8276367,-0.5517578,-0.42724609999999996,-0.6103516,-1.098633,128.6554,0.703125,31.36597,51.4,-77.05833,71.2,1
55890,0.08447266,0.828125,-0.5546875,-0.06103516,-0.3051758,-0.8544921999999999,128.6389,0.6976317999999999,31.57471,14.1,-9.408334,0.1416667,1
56230,0.08837891,0.8251953,-0.5561522999999999,-0.3662109,-0.24414059999999999,-0.8544921999999999,128.6554,0.6921387,31.78345,14.11667,-9.466666,-0.075,1
56440,0.08642578000000001,0.8173828,-0.5537109,-0.3662109,-0.8544921999999999,-0.7324219,128.5895,0.6866455,31.93726,14.15833,-9.416667,-0.125,1
56660,0.08300781,0.8427734,-0.5644530999999999,-11.53564,-0.12207029999999999,-0.5493163999999999,127.6721,0.6097412,32.25037,51.29167,-77.9,70.425,1
56890,0.09130859,0.9096679999999999,-0.5224609,-23.07129,1.953125,-1.098633,124.2499,0.4394531,32.8656,14.475,-7.716667,-4.425,1
57160,0.1479492,1.047363,-0.43408199999999997,-45.59326,1.8310549999999999,9.216309,117.9987,-0.4779053,32.57996,15.01667,-4.65,-5.108333,1
57370,0.1381836,1.025879,-0.26318359999999996,-48.46191,4.211426,4.760742,104.2108,-2.581787,33.89832,48.19167,-91.91666,55.43333,1
57630,0.1992188,1.165527,0.002929688,-111.7554,14.16016,-1.159668,89.18152,-3.647461,35.33752,18.1,4.6,-6.1,1
57870,0.15136719999999998,0.9716796999999999,0.3295898,-22.09473,5.737305,0.6713867,79.94751,-3.6859129999999998,37.16125,15.61667,5.15,-0.3416667,1
58090,0.03369141,0.7802734,0.1572266,30.63965,-13.00049,1.098633,82.86987,-4.020996,37.86987,13.45833,2.508333,4.7,1
58390,0.1630859,0.9321288999999999,0.15087889999999998,23.07129,-6.225586,-2.990723,89.54956,-3.66394,32.77222,47.79167,-95.30833,45.79167,1
58700,0.1933594,0.9614258,0.020996090000000002,-0.12207029999999999,-1.8310549999999999,0.12207029999999999,91.77979,-3.444214,30.75073,16.725,0.1833333,0.625,1
58990,0.15869139999999998,0.9951171999999999,-0.01611328,0.6713867,-3.051758,-0.6713867,91.92261,-3.856201,30.38818,16.49167,0.2583333,-0.6166667,1
59250,0.1098633,1.005859,-0.05957031,3.78418,44.98291,0.4882813,91.8457,-4.031982,35.06287,16.94167,-0.1166667,0.7666666999999999,1
59520,0.2158203,0.9658203,-0.03564453,16.78467,60.30273,5.67627,93.97705,-6.3555909999999995,51.70166,17.36667,-1.258333,1.683333,1
59830,0.18212889999999998,0.9755859,-0.1523438,17.94434,72.20459,-5.737305,95.98755,-9.014282,68.67554,16.08333,-2.858333,1.358333,1
60130,0.22070309999999999,0.996582,-0.38818359999999996,7.93457,61.40137,-10.98633,96.58081,-7.706909,86.6217,20.1,0.4583333,-5.325,1
60430,-0.03710938,0.9790038999999999,0.06591797,17.02881,32.65381,-22.82715,93.6145,-9.09668,101.3159,15.825,-0.2083333,0.8916666,1
60780,0.028808590000000002,0.9633788999999999,-0.08837891,-4.455566,-9.765625,7.019043,94.08691,-5.234985,107.298,17.5,-2.891667,0.075,1
61010,0.1450195,0.8017578,0.2729492,19.22607,19.65332,-47.24121,93.42224,-2.905884,104.2548,19.05,-90.4,64.19167,1
61250,0.21337889999999998,0.8208008,0.09326172,8.239746,29.29688,25.45166,96.21826,-4.707642,106.106,16.4,-1.225,0.9916666999999999,1
61490,0.2602539,1.068359,-0.2260742,6.04248,12.87842,-7.995605,96.48193,-5.163574,110.0555,14.225,-88.99167,64.39167,1
61730,0.22851559999999999,0.6591796999999999,0.2514648,18.00537,3.234863,40.64941,94.18579,-8.453979,111.9012,19.46667,-1.158333,-0.15833329999999998,1
62010,0.052734380000000004,0.9379883,0.07226563,-2.319336,-40.2832,-25.5127,95.81177,-6.097412,112.0551,15.64167,-1.558333,-1.491667,1
62230,0.11083979999999999,0.855957,-0.30273439999999996,0.3051758,-20.44678,-4.638672,94.42749,-5.707397,108.8251,14.89167,-90.85,63.75834,1
62510,0.3139648,0.9047852,0.04785156,15.56396,42.05322,15.38086,97.00928,-4.317627,108.045,14.25833,-90.125,64.8,1
62800,0.1298828,0.9287109,-0.1611328,-7.69043,16.47949,-10.00977,96.15234,-5.196533,113.8348,15.775,-2.066667,-1.9916669999999999,1
63050,0.2758789,1.469238,0.01904297,28.19824,21.1792,14.4043,97.06421,-8.909912,115.5267,14.50833,1.116667,-0.36666669999999996,1
63320,0.046875,0.9458008,-0.1416016,-11.90186,-10.68115,7.751465,96.35559,-4.894409,112.1814,11.34167,-91.225,64.15,1
63620,0.052734380000000004,1.4345700000000001,0.12451169999999999,-6.591797,-10.74219,-19.40918,96.36108,-3.537598,109.8193,19.25,2.241667,4.883333,1
63860,0.044921880000000004,1.035645,-0.08886719,6.04248,39.00146,-0.9765625,98.10791,-3.636475,110.6873,16.15833,-2.55,-0.9500000000000001,1
64140,0.33398439999999996,1.124512,-0.5834961,41.74805,18.55469,15.93018,97.9541,-3.208008,114.8895,10.05,-91.85,63.78333,1
64420,-0.0004882813,1.141113,-0.08349609,13.73291,-2.01416,-31.67725,97.01477,-8.00354,116.5375,14.76667,0.15,-1.183333,1
64690,0.05566406,1.012695,-0.04199219,-10.68115,2.319336,2.319336,94.43298,-4.658203,110.5719,22.18333,-4.158333,2.433333,1
65000,0.2358398,0.9936522999999999,-0.007324219000000001,-0.793457,19.77539,24.84131,95.85022,-0.3570557,110.495,15.73333,-0.1666667,1.358333,1
65230,0.1806641,0.9794921999999999,-0.1953125,0.7324219,15.31982,-9.58252,95.09216,-2.197266,116.6638,11.125,-93.78333,63.71667,1
65480,0.4130859,0.8076171999999999,0.2890625,56.03027,23.01025,17.02881,93.98254,-7.218018,115.719,15.70833,0.875,2.775,1
65720,0.10839839999999999,0.9116211,-0.14306639999999998,-9.033203,-2.929688,1.586914,94.97681,-3.66394,114.2578,10.98333,-92.975,65.39167,1
65960,-0.00390625,1.403809,0.00390625,28.56445,-13.06152,-29.41895,94.89441,-2.801514,113.4064,19.50833,2.733333,5.966667,1
67210,0.7924804999999999,1.525391,0.3188477,-30.27344,-46.50879,-45.47119,94.55933,-2.103882,106.1609,21.95833,-0.8250000000000001,1.308333,1
67430,0.3237305,0.7631836,0.08740234,2.746582,50.90332,16.6626,95.02075,-1.038208,108.924,15.10833,-1.566667,1.175,1
67680,0.03662109,0.8505859,-0.3466797,2.685547,-4.821777,3.356934,95.24597,-1.087646,114.7961,12.13333,-90.125,66.64167,1
67950,-0.048828130000000004,0.7490234,0.09130859,-15.50293,-52.36816,-13.91602,96.12488,-4.064941,113.7689,11.66667,-89.575,66.78333,1
68200,0.04199219,1.00293,-0.1811523,-18.18848,-5.859375,4.394531,95.09216,-4.273682,108.2703,19.15833,-2.158333,2.2,1
68470,0.4296875,0.8129883,0.08056641,7.263184,33.56934,38.08594,96.71265,-0.37353519999999996,105.5347,14.95,-90.05,67.51667,1
68800,0.1611328,1.085938,-0.2539063,5.371094,-2.868652,2.197266,97.14661,-1.027222,112.8516,33.8,7.2,2.391667,1
69070,-0.22851559999999999,0.7998046999999999,0.015625,-4.516602,-26.06201,-32.04346,98.61877,-4.96582,113.8788,10.225,-88.75,67.70834,1
69380,0.08056641,0.8632812999999999,-0.32568359999999996,-2.197266,0.5493163999999999,-16.17432,95.83923,-3.262939,108.7701,21.04167,7.691667,-5.908333,1
69680,0.1928711,0.8427734,0.07128906,-0.06103516,30.15137,10.80322,96.74561,-0.6921387,110.1984,11.575,-90.59167,67.26667,1
70000,0.048828130000000004,0.8007812999999999,-0.5058594,29.66309,-11.35254,13.42773,96.64673,-1.340332,113.4943,9.608334,6.833333,-8.25,1
70290,-0.1616211,0.6464844,0.1113281,-18.67676,-45.28809,-12.146,95.14709,-3.696899,114.3787,8.941667,-90.23333,66.6,1
70630,0.40332029999999996,1.712402,0.2558594,-9.82666,-26.24512,-34.91211,95.76233,-1.757813,107.7429,23.84167,0.36666669999999996,4.591667,1
70870,0.07617188,0.8959961,-0.07324219,9.521484,29.78516,-0.5493163999999999,94.76807,-1.620483,112.2418,9.675,-90.25,66.84167,1
71110,0.015625,0.8261719,-0.39648439999999996,-3.173828,-4.089355,7.93457,95.61401,-1.016235,113.3954,7.983333,5.058333,-14.65833,1
71360,-0.12060549999999999,0.6601562999999999,0.08154297,-20.38574,-49.1333,-14.34326,96.76758,-4.2462159999999995,113.3185,7.25,-88.05833,67.45,1
71590,0.1030273,1.098633,-0.1323242,-20.01953,2.868652,4.272461,95.7843,-3.960571,106.9629,21.19167,-5.091667,3.875,1
71860,-0.2651367,0.6220703,0.269043,65.73486,-22.70508,-30.45654,94.78455,2.570801,106.4685,14.0,0.5083333,1.341667,1
72080,0.03320313,0.9150391,-0.04980469,-28.19824,48.40088,-6.225586,96.89392,-1.411743,110.8026,14.26667,-3.791667,-0.5333333,1
72300,-0.1733398,1.9887700000000001,0.4755859,-49.19434,28.07617,42.84668,98.90991,-1.878662,114.1425,6.125,-87.76667,64.875,1
72540,-0.24072269999999998,0.6665038999999999,0.07373047,-13.42773,-36.31592,-28.25928,97.05872,-4.63623,113.8788,15.68333,-3.725,-0.6833332999999999,1
72790,0.02587891,0.8671875,-0.4155273,5.432129,-9.765625,-16.60156,94.422,-3.834229,105.2106,9.85,7.633333,-2.108333,1
73090,0.1474609,0.7685546999999999,0.017089840000000002,-14.03809,56.51855,0.12207029999999999,96.83899,-2.142334,108.2867,10.29167,-88.44167,63.83333,1
73400,0.33300779999999996,1.793945,0.02441406,55.41992,-11.41357,44.43359,97.99255,-2.389526,112.2803,7.816667,-88.325,61.69167,1
73670,-0.2602539,0.8149413999999999,0.08349609,-2.868652,-23.25439,-41.93115,97.55859,-5.762329,112.4615,14.29167,-1.791667,0.2833333,1
73910,0.1455078,0.8349609,-0.38037109999999996,-2.380371,-2.380371,-20.26367,94.63074,-4.141846,105.3259,13.54167,-90.03333,63.40833,1
74220,0.1811523,0.8408203,0.02832031,-22.82715,44.55566,-0.06103516,95.78979,-1.444702,108.3966,16.15833,-3.483333,1.241667,1
74530,0.3046875,1.476563,0.008789063,46.69189,-30.63965,36.43799,97.04224,-1.6479489999999999,110.6927,22.75833,2.4,11.56667,1
74820,0.10107419999999999,0.8496094,-0.06542969,12.87842,-31.37207,-9.399414,95.63049,-3.35083,109.4073,11.54167,-90.65833,65.03333,1
75150,0.2583008,0.7368163999999999,0.40283199999999997,-31.00586,54.6875,-112.9761,94.01001,1.488647,107.4902,17.475,-0.8666667,-0.9,1
75370,0.1254883,0.8652344,-0.0004882813,-13.85498,47.18018,-1.098633,95.48767,-1.625977,111.9177,16.91667,-3.616667,1.266667,1
75590,0.1953125,1.438477,-0.06201172,40.77148,-7.629395,25.39063,97.13562,-1.071167,115.4993,8.666667,-91.825,64.04166,1
75820,-0.3056641,0.8320312999999999,0.08056641,-2.685547,-17.33398,-42.84668,97.34985,-4.866943,115.1312,15.15833,-1.9916669999999999,-0.36666669999999996,1
76100,0.09472656,0.9980469,-0.1342773,-8.972168,-5.371094,14.22119,95.64697,-3.109131,106.1664,15.14167,-4.516667,-2.008333,1
76320,-0.23730469999999998,0.484375,0.3818359,-23.55957,44.67773,-97.65625,94.82849,1.115112,104.7272,17.26667,0.25,-0.55,1
76540,0.1157227,0.9902344,-0.24414059999999999,-10.68115,6.04248,-11.53564,96.94336,-2.054443,110.5719,17.65833,-2.3,0.9833333999999999,1
76820,0.3666992,1.000488,0.1875,62.13379,19.65332,31.67725,96.9104,-5.767822,110.0391,7.95,-89.2,66.41666,1
77080,0.22070309999999999,0.9868163999999999,-0.1542969,8.422852,-56.03027,-8.728026999999999,96.26221,-2.993774,106.6388,15.43333,-2.416667,-1.616667,1
77330,0.5507813,1.270996,0.3388672,-40.83252,-5.7983400000000005,-74.15771,96.55334,-2.197266,102.453,16.2,-91.7,66.34167,1
77630,0.04736328,0.8989258,-0.09863281,8.544922,22.3999,1.586914,97.43774,-2.334595,108.5504,11.44167,-89.925,66.3,1
77900,0.09472656,0.9233397999999999,-0.24414059999999999,-12.69531,-12.39014,-0.6103516,98.10791,-1.543579,110.2368,25.575,5.55,-6.4,1
78140,-0.10107419999999999,0.777832,0.015136720000000001,-3.662109,-24.41406,-21.1792,99.48669,-4.718628,109.4348,10.41667,-88.45834,67.25833,1
78450,0.0078125,0.8701171999999999,-0.4052734,-12.26807,-26.9165,-15.07568,97.10815,-2.735596,104.837,14.03333,6.15,-2.883333,1
78760,0.2270508,0.8574219,-0.009765625,1.037598,52.55127,16.8457,97.64099,-1.290894,107.3859,15.06667,-1.85,0.9833333999999999,1
79060,0.203125,0.9467772999999999,-0.5341796999999999,27.46582,12.57324,3.234863,98.2782,-0.7635498,113.7469,11.05,6.583333,-9.208333,1
79430,0.004394531,0.8466796999999999,-0.26220699999999997,-19.04297,-34.729,10.62012,98.28918,-0.8569336,107.6276,12.51667,-90.45834,64.98333,1
79690,0.409668,2.077637,0.32470699999999997,2.258301,-89.2334,-15.25879,97.0752,-0.6097412,99.98657,26.4,-3.158333,7.475,1
79940,0.06787109,0.8896484,-0.056640630000000004,10.49805,21.11816,-7.263184,95.46021,-1.917114,101.0907,14.825,-91.525,64.96667,1
80180,-0.022460940000000002,0.8344727,-0.35791019999999996,-11.1084,23.07129,-9.521484,97.65198,-0.7141113,104.4415,23.48333,5.458333,-28.48333,1
80430,0.09570313,1.229004,-0.2275391,-7.141113,36.8042,-58.41064,98.64624,-6.069946,105.3589,12.3,0.15,-2.425,1
80630,0.168457,1.180664,-0.234375,-23.25439,-20.93506,0.6103516,97.31689,-3.070679,98.14636,14.63333,-90.80833,65.6,1
80870,0.16650389999999998,1.614258,-0.2421875,12.26807,8.728026999999999,16.60156,98.7561,1.867676,95.74585,13.36667,0.008333334000000001,1.25,1
81160,0.06445313,0.9067383,-0.2041016,7.69043,12.3291,-10.86426,97.81677,-1.307373,107.1661,12.85833,-90.96667,64.25833,1
81440,-0.1044922,0.8569336,0.1235352,12.45117,6.04248,-22.58301,97.64099,-4.235229,105.705,11.225,-90.03333,64.49167,1
81740,0.03320313,0.8251953,-0.1831055,-17.08984,-26.61133,10.13184,96.53137,-2.422485,101.9861,18.45,-4.541667,-0.7083332999999999,1
81980,0.1577148,1.459961,-0.2260742,-4.089355,-0.1831055,15.99121,97.97607,2.131348,97.28943,17.98333,-90.075,66.43333,1
82250,0.1132813,1.075195,-0.26220699999999997,20.62988,3.356934,-1.89209,98.30017,0.34606929999999997,102.464,16.00833,-90.34167,65.375,1
82550,0.8310546999999999,1.119629,0.25,144.104,39.61182,4.577637,97.99805,-7.020264,101.6455,15.275,0.08333334,0.775,1
82790,0.1357422,0.8706054999999999,-0.2241211,-7.751465,-31.92139,13.30566,99.02527,-1.230469,95.75684,14.525,-7.958333,-1.0,1
84060,-0.22851559999999999,0.6835937999999999,0.38916019999999996,-20.81299,114.563,-133.0566,94.51538,4.751587,81.0791,29.4,-92.25,63.15,1
84330,0.14306639999999998,0.703125,0.03857422,-20.50781,9.58252,9.155273,95.82825,1.5271000000000001,76.62415,14.8,-3.025,0.1916667,1
84600,0.3081055,1.27002,0.009765625,21.72852,-26.79443,15.80811,96.43799,0.6536865,79.62891,26.38333,-92.73333,62.14167,1
84940,0.1015625,0.8173828,-0.05371094,-13.42773,-52.24609,-11.35254,94.71313,-0.3076172,73.14697,15.6,-3.666667,-0.36666669999999996,1
85140,0.06884766,0.9150391,-0.4003906,-7.446289,-21.48438,-9.58252,93.64746,-1.159058,65.46204,21.05833,10.34167,-7.908333,1
85360,0.04589844,1.133789,-0.144043,-12.02393,24.71924,50.90332,95.24597,1.94458,65.61035,13.675,-1.183333,-0.325,1
85570,0.2275391,1.149414,-0.20996089999999998,12.02393,5.615234,-11.16943,96.55334,-0.9503174,74.22363,30.31667,-91.05,64.11667,1
85810,0.47363279999999996,0.9667969,0.2109375,74.46289,16.17432,15.44189,95.81726,-5.987549,72.30103,14.11667,1.308333,0.8916666,1
86050,0.09521484000000001,0.8085937999999999,-0.048828130000000004,-17.21191,-40.89355,-9.033203,95.10315,-1.345825,69.93347,14.975,-3.433333,-0.1666667,1
86270,0.637207,0.8833008,0.4995117,-34.66797,10.13184,-80.32227,94.08142,0.5493163999999999,62.83081,36.7,-91.54166,61.525,1
86520,0.18994139999999998,0.7587891,-0.008789063,-3.723145,20.99609,15.25879,96.03699,-0.3625488,65.08301,14.90833,-2.716667,1.291667,1
86790,0.1362305,1.025391,-0.2011719,18.43262,-2.197266,-11.1084,96.15234,-0.4833984,68.97217,17.85833,-7.383333,5.375,1
87000,-0.07714844,0.9145508,0.03759766,16.60156,7.324219,-51.08643,96.88293,-4.586792,69.1095,31.39167,-90.63333,64.35833,1
87250,0.1103516,0.8535155999999999,-0.2636719,-6.896973,-17.8833,13.85498,95.44373,-2.252197,63.22632,17.80833,-4.458333,-2.866667,1
87500,0.12207029999999999,1.388672,-0.1235352,15.01465,-0.5493163999999999,-1.708984,95.64148,2.103882,59.8645,38.075,-90.90833,61.74166,1
87770,0.19775389999999998,0.8681641,-0.1484375,3.417969,45.22705,-5.554199,94.6582,-1.098633,66.36292,15.775,-2.5,0.6833332999999999,1
88000,0.3295898,0.671875,0.3115234,56.64063,24.16992,30.09033,93.62,-5.328369,68.82385,29.98333,-91.26667,63.84167,1
88310,0.1459961,0.8476562999999999,-0.21337889999999998,-10.0708,-8.361816,13.30566,93.6969,-2.131348,64.10522,16.95,-4.975,-0.525,1
88620,0.30908199999999997,1.230957,-0.09765625,-20.93506,-3.4790039999999998,0.42724609999999996,94.78455,1.664429,59.93042,38.66667,-91.275,62.15833,1
88920,0.1445313,1.004395,-0.2001953,14.83154,-5.981445,-10.98633,94.19678,-0.2416992,66.58813,35.59167,-91.16666,63.75834,1
89230,-0.05224609,0.8798828,0.06298828000000001,30.39551,-7.324219,-37.23145,95.76233,-4.614258,65.44006,13.39167,-0.7416667,-0.2083333,1
89470,0.0859375,0.8164062999999999,-0.22998049999999998,-17.63916,-24.35303,14.16016,94.82849,-2.373047,59.996340000000004,17.825,-4.933333,-0.6083333,1
89690,0.34814449999999997,1.041504,-0.1040039,-11.96289,7.019043,5.310059,95.7074,2.043457,51.38855,42.6,-90.83334,62.39167,1
89920,0.1674805,0.984375,-0.1757813,-9.033203,14.09912,-8.361816,95.98755,-1.252441,55.62927,16.56667,-4.016667,1.541667,1
90190,0.19384769999999998,1.0,-0.24902339999999998,23.31543,1.6479489999999999,13.42773,95.76233,-0.4394531,57.44751,12.33333,5.966667,7.966667,1
90410,-0.1025391,0.9365234,0.05029297,21.85059,-9.521484,-33.93555,96.73462,-4.938354,55.96436,13.80833,-0.375,-1.125,1
90630,0.06933594,1.040527,-0.3071289,-3.234863,-16.23535,-8.483887,95.64697,-2.406006,46.32935,42.58333,-92.08334,61.01667,1
90870,0.3452148,1.356445,-0.2045898,0.06103516,-51.14746,-2.258301,96.52039,2.224731,39.80896,12.26667,0.0,-0.1416667,1
91110,0.07275391,0.8344727,-0.1538086,3.723145,17.7002,-18.67676,95.91064,0.368042,42.59399,46.49166,-91.2,59.8,1
91350,-0.3554688,0.3129883,0.2226563,-71.89941,-49.43848,67.13867,94.3396,-2.883911,43.84644,17.19167,-1.9916669999999999,0.4333333,1
91640,0.1152344,0.8315429999999999,-0.31835939999999996,-12.45117,-27.40479,15.13672,95.66895,-1.153564,33.60168,48.03333,-93.2,54.75834,1
91940,0.3994141,1.397461,-0.1298828,-7.93457,-22.94922,-3.601074,96.04248,1.834717,28.45459,12.03333,0.4166667,0.6166667,1
92220,0.15136719999999998,0.9145508,-0.1650391,9.94873,21.11816,-2.624512,96.21826,-1.054688,31.1792,15.16667,-2.883333,1.0,1
92460,0.2885742,0.4316406,0.3779297,0.12207029999999999,-38.20801,63.5376,94.88342,-4.833984,30.88257,46.55,-93.41666,55.075,1
92740,0.1357422,0.8081054999999999,-0.24951169999999998,-23.01025,-33.44727,11.16943,95.83923,-1.636963,23.10425,18.34167,-3.225,0.45,1
93070,0.09277344,1.557129,-0.09423828000000001,40.2832,-0.793457,7.141113,97.42676,2.043457,20.95642,12.54167,0.8333332999999999,2.3,1
93410,0.04833984,0.8647461,-0.04931641,-5.432129,1.403809,-17.82227,95.63599,-1.4556879999999999,31.08032,14.08333,-6.141667,-1.4,1
93610,-0.2163086,0.48974609999999996,0.31689449999999997,-59.44824,-5.981445,49.68262,94.1748,-4.334106,31.97021,16.80833,-1.066667,-1.666667,1
93830,-0.06689453000000001,0.7602538999999999,-0.015625,-22.09473,-55.48096,-21.05713,96.51489,-2.175293,28.4491,15.18333,-4.5,-1.308333,1
94040,0.746582,1.452148,0.2524414,-42.66357,-66.40625,-39.12354,94.94934,-0.7800292999999999,18.95142,54.39167,-92.35833,45.625,1
94280,0.199707,0.7421875,0.026367190000000002,0.06103516,-1.464844,13.91602,95.37231,0.3076172,15.21606,15.2,-1.133333,0.06666667,1
94520,0.121582,0.8466796999999999,-0.1054688,-0.8544921999999999,-2.929688,-9.765625,93.27942,-0.39550779999999996,16.16089,15.58333,-4.116667,1.075,1
94740,-0.04150391,0.8071288999999999,0.1557617,16.90674,-42.5415,-34.729,95.0647,-5.234985,14.37561,51.13334,-94.43333,43.94167,1
94990,0.206543,0.8334961,-0.2744141,-8.361816,-37.35352,13.67188,94.422,-2.263184,5.125122,18.69167,-2.516667,-2.583333,1
95260,0.1645508,1.595215,-0.10058589999999999,54.26025,-23.25439,20.87402,94.98779,1.274414,1.164551,54.84167,-92.85,36.43333,1
95540,-0.02294922,0.8291016,-0.1098633,-11.90186,17.7002,-17.27295,92.98828,-2.493896,11.51917,53.1,-93.525,40.25,1
95840,0.1025391,0.31738279999999996,0.49707029999999996,-63.90381,-73.6084,114.0137,91.84021,-5.586548,13.50769,14.31667,2.066667,0.875,1
96080,0.03369141,0.8862304999999999,-0.269043,-17.15088,-15.99121,6.469727,93.38379,-4.498901,14.52942,49.89167,-94.99167,41.625,1
96350,0.1655273,1.602051,-0.22558589999999998,-8.728026999999999,14.77051,12.26807,96.00952,0.08239746,13.15063,52.91667,-93.05,42.98333,1
96650,0.01660156,0.8447266,-0.1000977,6.835938,68.96973,-2.624512,94.29565,-3.900146,24.65332,14.58333,-2.2,0.7083332999999999,1
96900,0.4536133,0.4223633,0.49072269999999996,-33.08105,-80.81055,114.8682,94.13635,-7.009277,24.00513,14.475,2.925,-1.008333,1
97180,0.02734375,0.8310546999999999,-0.2568359,-15.07568,-17.63916,8.728026999999999,95.38879,-2.713623,23.4613,22.85833,-6.258333,-0.35000000000000003,1
97510,0.2617188,1.376953,-0.140625,-13.97705,-33.3252,9.94873,95.44922,0.7635498,18.91846,13.275,0.6583333,-0.425,1
97820,0.07763672,0.9003905999999999,-0.1323242,-1.525879,3.90625,-11.41357,93.47168,-1.658936,22.5824,16.96667,-6.241667,-1.883333,1
98050,-0.5551758,0.7617187999999999,0.2382813,-133.7891,62.13379,10.74219,91.85669,-3.565063,23.96667,20.99167,-2.541667,-5.333333,1
98270,0.02050781,0.902832,-0.1767578,-7.446289,-29.29688,5.004883,92.40601,-2.39502,17.40784,50.24166,-94.48333,44.46667,1
98510,0.06103516,1.546875,0.06884766,16.23535,-25.45166,-21.42334,93.75732,-2.285156,12.29919,18.40833,2.466667,10.55833,1
98750,0.27050779999999996,0.8212891,0.06689453000000001,16.47949,10.86426,21.48438,94.92737,-0.5712891,8.256226,13.25,1.008333,-1.25,1
98960,0.05517578,0.9291992,-0.3974609,-19.53125,-9.765625,-0.8544921999999999,93.22998,-0.8514404,13.17261,51.74166,-93.45834,44.40833,1
100190,0.2797852,0.5239258,0.35693359999999996,3.540039,-20.81299,80.32227,94.29565,-5.125122,6.849976,48.99166,-94.825,43.40833,1
100440,0.007324219000000001,0.8676758,-0.0004882813,-28.19824,-69.88525,-17.82227,95.13611,-3.2958979999999998,2.510376,12.725,-3.941667,-1.841667,1
100680,0.21289059999999999,1.022461,-0.2670898,-16.29639,0.4882813,2.685547,93.84521,-4.130859,-4.998779,25.725,3.9333329999999997,-6.683333,1
100900,0.27832029999999996,0.7363280999999999,0.03320313,6.835938,47.48535,19.65332,95.625,-0.8404541,-4.020996,54.99166,-91.86667,37.56667,1
101180,0.07080078000000001,0.7734375,-0.3139648,5.432129,-21.66748,9.643555,94.72961,-1.203003,2.444458,55.9,-90.79166,39.075,1
101470,0.01757813,1.007324,-0.07568359,1.6479489999999999,16.54053,-25.26855,96.43799,-7.717896,0.6976317999999999,13.375,1.166667,-3.016667,1
101720,0.1264648,1.04248,-0.10058589999999999,-14.52637,4.516602,1.281738,93.22449,-4.63623,-3.543091,55.775,-91.55,35.04167,1
101990,0.44189449999999997,0.7182617,0.09570313,10.92529,30.70068,21.11816,95.44922,-1.483154,-8.014526,58.08333,-89.74167,34.13334,1
102300,0.03955078,0.7963867,-0.1000977,2.929688,1.525879,-20.69092,93.75732,-2.2796629999999998,-0.5767822,13.43333,-5.0,-3.691667,1
102540,0.1552734,0.9414062999999999,-0.04394531,-14.34326,11.65771,-21.24023,95.41626,-7.316895,-3.790283,12.35833,0.925,-1.941667,1
102810,0.05566406,1.117188,-0.01318359,-9.94873,4.760742,7.080078,92.83997,-4.916382,-6.696167,57.25,-90.03333,33.30833,1
103160,0.2426758,0.7749022999999999,0.02734375,9.155273,39.0625,21.66748,95.9436,-1.131592,-6.503906,14.46667,-1.241667,-0.3916667,1
103360,0.020996090000000002,0.7270508,-0.12695309999999999,-8.911133,3.662109,-18.55469,94.51538,-1.137085,-0.3900146,14.60833,-6.441667,-1.533333,1
103570,0.1484375,0.3696289,0.5737304999999999,-41.44287,-45.28809,80.32227,92.55981,-5.493164,-2.834473,15.84167,1.808333,-0.7166667,1
103790,0.01220703,0.7441405999999999,-0.2119141,-27.09961,-33.20313,18.73779,94.43848,-2.93335,-9.387817,56.20833,-91.025,33.625,1
104020,0.24462889999999998,1.969238,0.6958008,-13.73291,-70.80078,-34.85107,95.08118,-2.757568,-15.21057,32.5,-3.575,2.875,1
104300,0.3217773,0.8476562999999999,-0.04394531,25.26855,70.00732,6.164551,99.26697,-2.675171,-11.75537,14.08333,-1.8,-1.258333,1
104520,-0.044921880000000004,0.9042969,-0.2675781,16.54053,17.63916,-14.46533,97.61353,-3.218994,1.71936,15.09167,-9.241667,5.091667,1
104730,-0.3740234,0.9360352,0.06982422,20.38574,-13.79395,-34.48486,99.1626,-6.097412,5.861206,53.28333,-92.28333,43.35833,1
104970,0.04345703,0.8535155999999999,-0.1918945,-25.26855,-8.911133,16.6626,96.21277,-3.795776,-1.560059,15.53333,-7.458333,1.8666669999999999,1
105220,0.3535156,0.8833008,0.08642578000000001,22.2168,34.42383,41.25977,98.5968,-0.2252197,-0.33508299999999996,12.5,-0.2916667,-2.95,1
105520,0.04248047,0.8896484,-0.34179689999999996,-31.79932,-27.22168,-1.6479489999999999,98.01453,-1.027222,10.49744,55.00834,-90.075,46.83333,1
105830,0.044921880000000004,0.75,-0.004882813000000001,-34.729,-92.89551,-17.08984,99.15161,-3.2958979999999998,3.839722,54.48333,-91.4,42.53333,1
106090,0.20166019999999998,1.043457,-0.2231445,-6.835938,-13.18359,3.112793,96.21826,-3.092651,-6.987305,31.925,7.091667,-0.75,1
106340,0.3081055,0.7836913999999999,-0.01416016,18.98193,43.64014,12.3291,99.4043,-1.268921,-9.431763,54.7,-91.18333,38.34167,1
106650,0.21728519999999998,0.8471679999999999,-0.234375,18.61572,-8.300781,7.69043,99.0033,-1.049194,-2.120361,13.44167,9.341666,13.575,1
106950,0.13525389999999998,0.7797852,-0.02734375,-14.16016,-57.31201,-8.239746,99.3988,-4.44397,-4.196777,52.25834,-92.14167,39.35,1
107300,0.8554687999999999,1.383789,0.3066406,-30.33447,-39.61182,-48.82813,98.00903,-3.790283,-8.129883,23.31667,-3.241667,-3.175,1
107520,0.22998049999999998,0.7827147999999999,-0.06005859,7.263184,57.92236,8.789063,100.0195,-2.993774,-0.5328369,14.13333,-2.033333,0.3916667,1
107720,0.04150391,0.9042969,-0.1542969,15.38086,-12.26807,-16.29639,99.1571,-3.136597,8.607788,15.09167,-3.591667,2.316667,1
107920,0.5356445,0.6943359,0.4536133,79.58984,39.73389,21.91162,98.37708,-7.877197,5.223999,14.95,1.883333,3.366667,1
108150,0.1728516,0.8212891,-0.2475586,-12.146,-7.019043,10.37598,98.04199,-4.163818,2.224731,51.65,-91.74167,41.88334,1
108380,0.6640625,1.365723,0.2758789,-29.90723,-37.10938,-73.12012,98.98132,-2.329102,1.120605,20.9,-2.866667,-3.916667,1
108630,0.22851559999999999,0.6782227,0.02587891,-8.666992,18.73779,21.30127,99.38232,-1.9885249999999999,-0.9997558999999999,15.73333,-2.641667,0.6583333,1
108850,0.2929688,0.9672852,-0.25439449999999997,34.729,8.300781,12.51221,99.18457,-2.208252,4.641724,14.70833,6.025,13.30833,1
109150,0.06787109,0.8457030999999999,-0.05517578,-5.615234,-46.99707,-8.911133,99.63501,-4.251709,2.69165,51.90833,-91.05,42.85,1
109470,0.5336913999999999,0.6879883,0.4331055,-41.19873,19.47021,-88.13477,98.06946,-1.488647,-3.213501,17.61667,-0.6916667,-1.875,1
109760,0.21875000000000003,0.7592772999999999,-0.06689453000000001,-2.685547,53.4668,9.643555,100.5963,-3.14209,2.466431,15.26667,-4.425,-0.5333333,1
110000,0.5190429999999999,1.460938,-0.2416992,46.81396,-17.27295,33.38623,101.0468,-3.24646,7.734375,16.64167,5.058333,22.05833,1
110270,0.07666016,0.8950195,-0.07861328000000001,-23.19336,-50.96436,-9.765625,98.54187,-3.598022,3.328857,14.58333,-3.141667,-1.183333,1
110580,0.3935547,0.7329102,0.3999023,-32.10449,-11.23047,-68.11523,98.1134,-1.049194,0.1593018,54.425,-89.63333,41.2,1
110880,0.08642578000000001,0.9179687999999999,-0.16650389999999998,-8.483887,35.46143,-11.77979,99.7229,-3.735352,7.492676,17.06667,-3.116667,3.708333,1
111190,0.30126949999999997,0.9692383,0.1801758,113.8306,26.48926,12.45117,99.76135,-7.701416,7.174072,15.175,1.325,1.925,1
111490,0.07519531,0.9785155999999999,-0.1630859,-6.286621,-4.272461,10.0708,98.4375,-5.092163,4.669189,20.06667,-3.316667,2.825,1
111860,0.17041019999999998,0.8393554999999999,-0.02929688,-7.019043,37.47559,1.037598,98.55286,-3.032227,3.982544,53.025,-90.675,43.75,1
112120,0.24902339999999998,1.159668,-0.2519531,2.807617,1.586914,-4.638672,98.49243,-1.977539,7.987061,30.81667,1.033333,-6.05,1
112370,-0.1811523,0.7675780999999999,0.03613281,-7.69043,-24.71924,-23.62061,100.1624,-5.548096,8.959351,51.73333,-91.03333,46.66667,1
112610,0.1201172,0.9799804999999999,-0.1992188,-5.67627,-9.887695,15.38086,98.3551,-4.411011,2.966309,15.55,-7.666667,1.575,1
112850,-0.08447266,0.4760742,0.36425779999999996,-10.92529,39.18457,-81.90918,97.44873,-0.6756592,1.170044,16.13333,0.5,0.5583332999999999,1
113070,-0.03417969,0.8896484,-0.2817383,-2.807617,27.28271,-10.55908,99.4043,-3.658447,8.99231,53.3,-90.33334,47.01667,1
113320,0.394043,1.627441,-0.04736328,46.75293,-17.21191,32.83691,101.0468,-2.724609,8.217773,24.31667,0.7666666999999999,15.88333,1
113590,-0.2802734,0.8764647999999999,0.02539063,-2.929688,3.845215,-39.67285,101.1621,-6.536865,9.107666,14.50833,-1.75,-1.783333,1
113830,0.02929688,0.8491211,-0.3920898,-0.6713867,6.652832,-10.19287,99.25598,-5.119629,5.350342,17.15,7.658333,-7.408333,1
114080,0.1723633,0.7944336,-0.03515625,10.98633,45.89844,7.385254,101.283,-2.93335,8.223267,53.225,-89.78333,48.68333,1
114380,0.1025391,1.01416,-0.1948242,20.87402,-15.19775,-14.28223,101.0577,-2.543335,13.85925,15.76667,-6.366667,5.541667,1
114620,-0.1811523,0.9887695,0.007324219000000001,17.08984,8.178711,-52.4292,102.5189,-6.921387,12.0575,14.175,0.425,-2.166667,1
114900,0.02832031,0.980957,-0.347168,-17.8833,-5.981445,-6.652832,100.3931,-4.735107,5.421753,52.21667,-91.30833,45.74166,1
115170,0.21435549999999998,1.307129,-0.2607422,-25.45166,-7.8125,17.51709,101.3763,0.7965088,2.191772,13.20833,-0.9333332999999999,0.8,1
115420,0.08544922,0.9433594,-0.2314453,8.300781,0.9765625,-14.03809,100.2777,-2.345581,10.40955,52.95,-90.46667,47.19167,1
116730,0.2089844,0.3852539,0.3354492,-15.07568,-78.06396,103.5767,99.34937,-6.333618,6.47644,15.94167,-0.1,-2.975,1
117070,0.09277344,0.7221679999999999,-0.2592773,-26.48926,-51.81885,15.56396,100.047,-2.5872800000000002,-2.04895,19.01667,-3.733333,-0.525,1
117290,0.2602539,1.741211,-0.3374023,57.25098,-34.17969,50.10986,100.7117,2.268677,-7.866211,57.21667,-90.36667,37.725,1
117520,0.1152344,0.8569336,-0.11865229999999999,-4.272461,62.74414,3.967285,99.84924,-2.817993,-0.736084,13.5,-2.958333,-2.341667,1
117790,0.1337891,0.7543945,-0.2768555,-8.544922,-14.70947,2.319336,99.61304,-1.351318,4.663696,4.375,6.591667,-9.175,1
118000,0.08984375,0.7275391,-0.02929688,-43.27393,-64.20898,-15.86914,101.5247,-3.301392,2.202759,56.125,-89.78333,41.75,1
118240,0.2075195,1.1635739999999999,-0.1948242,-7.507324,-6.408691,8.972168,100.6677,-2.779541,-5.174561,23.14167,1.608333,1.083333,1
118490,-0.7480469,1.11377,0.04736328,102.7222,10.80322,-13.85498,99.86572,4.257202,-4.361572,12.24167,1.116667,2.425,1
118710,0.015136720000000001,0.8041992,-0.1870117,2.319336,1.159668,-14.52637,101.8488,-1.609497,-0.4119873,59.68333,-87.35,40.95833,1
118950,-0.41162109999999996,1.291016,0.2387695,-89.2334,81.29883,13.18359,101.4093,-2.658691,-1.120605,19.14167,-1.508333,-0.7583333,1
119220,-0.17431639999999998,0.6020508,0.09228516,-16.23535,-47.11914,-17.8833,101.5961,-3.521118,-1.768799,14.43333,-5.441667,0.025,1
119440,-0.2001953,0.9140625,-0.5244141,26.18408,-14.77051,-9.94873,99.95911,-2.6477049999999998,-9.508666999999999,6.508333,7.425,-1.641667,1
119720,0.1040039,0.8422852,-0.1264648,-12.87842,36.13281,-0.5493163999999999,101.3983,-0.9887695,-8.981323,61.68333,-86.98333,36.4,1
120010,0.08544922,1.198242,-0.22558589999999998,18.37158,1.525879,-7.202148,100.9149,-0.9228516,-3.757324,35.75,8.483334,4.525,1
120250,-0.27880859999999996,0.8203125,-0.03076172,-17.45605,-37.23145,-23.19336,103.9691,-4.037476,-2.911377,14.866670000000001,-2.383333,-0.75,1
120530,0.03759766,0.7587891,-0.38916019999999996,3.417969,0.42724609999999996,-2.197266,100.9479,-3.427734,-12.17834,60.775,-88.475,34.26667,1
120810,0.1474609,1.355469,-0.24072269999999998,-25.08545,16.78467,19.22607,102.4036,1.565552,-12.00806,12.93333,-0.425,-0.1166667,1
121060,0.04736328,0.8388671999999999,-0.1533203,15.25879,-6.9580079999999995,-12.57324,101.272,-2.103882,-0.8514404,12.43333,-5.6,2.8083329999999997,1
121390,-0.0390625,0.9204102,0.01220703,9.521484,12.39014,-37.96387,102.7771,-7.168579,-0.3900146,13.525,1.175,-1.858333,1
121630,0.1103516,1.171387,-0.1054688,-9.155273,-1.037598,7.995605,100.5359,-4.44397,-3.823242,60.05,-87.96667,41.91667,1
121870,-0.3696289,0.6386719,0.34179689999999996,110.4126,64.02588,-73.18115,99.94812,1.966553,-3.043213,13.94167,1.008333,1.016667,1
122120,-0.07324219,0.8315429999999999,-0.2387695,-14.64844,3.540039,-14.95361,101.5137,-2.537842,4.96582,60.925,-85.65,48.25834,1
122360,-0.30908199999999997,2.044922,0.1987305,-39.42871,64.94141,36.9873,103.2825,-3.131104,4.279175,33.125,-6.941667,5.325,1
122620,-0.15917969999999998,0.7636719,-0.022460940000000002,-16.11328,-51.14746,-18.61572,103.7164,-4.229736,2.839966,14.21667,-2.05,-3.716667,1
122850,0.1762695,0.9482421999999999,-0.2402344,0.9765625,-22.52197,21.11816,101.9421,-2.845459,-7.684937,14.36667,-7.916667,2.625,1
123060,0.3618164,1.026367,-0.02294922,-17.82227,-2.258301,32.22656,101.4203,1.043701,-10.41504,63.425,-87.95834,39.475,1
123300,0.02294922,0.9204102,-0.2568359,2.075195,31.25,-12.75635,101.651,-3.224487,-2.537842,16.56667,-4.925,1.825,1
123550,0.4101563,0.24072269999999998,0.4804688,-2.441406,-130.0049,145.4468,98.26721,-5.344849,-0.9997558999999999,16.59167,0.5166666999999999,-0.1666667,1
123850,0.1264648,0.9013671999999999,-0.2612305,-9.033203,-16.17432,13.12256,101.9696,-2.883911,-6.92688,61.39167,-90.4,43.075,1
124160,0.4145508,0.5219727,0.43408199999999997,-29.84619,170.0439,-170.166,98.97583,-1.279907,-13.35938,64.46667,-87.975,41.9,1
124420,0.1152344,0.8735352,-0.048828130000000004,-5.737305,52.97852,11.1084,102.0685,-1.554565,-6.3555909999999995,15.84167,-2.65,-0.1333333,1
124680,0.1435547,0.7651367,-0.2739258,-0.3662109,15.80811,-5.126953,101.6895,-2.598267,2.2796629999999998,59.05,-89.09167,52.23333,1
124990,0.05175781,0.8081054999999999,-0.008300781,3.417969,-30.76172,-15.93018,101.8323,-6.871948,6.168823,14.81667,-2.2,-1.283333,1
125290,0.03466797,0.8911133,-0.3203125,0.42724609999999996,-4.455566,-0.5493163999999999,101.0358,-8.069458,2.109375,18.06667,5.691667,-8.616667,1
125630,0.16650389999999998,0.8818359,-0.03613281,13.85498,119.1406,6.469727,103.0298,-7.366333,17.08923,16.51667,-4.066667,2.816667,1
125860,0.05615234,0.921875,-0.24902339999999998,-3.78418,39.12354,-19.22607,102.876,-9.706421,44.73083,35.44167,-88.075,72.63333,1
126110,0.3320313,1.492676,0.04541016,22.52197,107.7271,6.530762,101.3983,-13.61755,52.10266,15.21667,1.666667,0.2333333,1
126350,-0.10839839999999999,0.8164062999999999,-0.12060549999999999,-0.8544921999999999,32.89795,8.605957,96.37207,-12.82654,73.73474,16.63333,-89.01667,73.4,1
126590,0.3383789,1.644531,0.1875,11.2915,40.22217,-34.729,97.5531,-12.88696,75.14099,19.80833,2.608333,7.566667,1
126860,0.20605469999999998,0.9770508,0.04394531,5.981445,82.39746,6.286621,96.8335,-10.72815,86.68762,17.21667,-1.7,4.766667,1
127080,0.07324219,0.9677734,-0.1303711,10.43701,65.7959,1.464844,96.37207,-14.30969,102.5574,17.15,-3.25,2.183333,1
127300,0.2460938,0.6733397999999999,-0.02148438,-13.91602,9.155273,7.69043,95.41626,-16.54541,116.5759,15.15833,2.066667,-0.6583333,1
127580,-0.1459961,0.9155272999999999,-0.1416016,2.075195,104.6143,-7.568359,90.85693,-13.66699,143.7012,-16.6,-82.79166,43.56667,1
127840,-0.07763672,1.161621,-0.234375,3.90625,-9.399414,2.929688,89.41223,-13.54065,149.1943,18.59167,4.575,-0.7166667,1
128120,0.1811523,0.8623046999999999,0.05126953,11.23047,50.65918,13.79395,91.29639,-9.898681999999999,155.7257,17.11667,-0.8833333,1.775,1
128390,0.190918,0.9711913999999999,-0.1923828,13.61084,37.23145,-12.75635,92.34009,-9.898681999999999,168.3929,-16.1,-83.88333,28.275,1
128660,0.3779297,0.7275391,0.43457029999999996,-14.28223,-26.42822,19.9585,89.83521,-13.35938,169.6289,17.625,-0.09166667,1.983333,1
128910,-0.01074219,0.9179687999999999,-0.1264648,7.8125,11.96289,-2.380371,90.65369,-9.464722,174.0125,-16.0,-83.65,25.04167,1
129210,-0.2265625,0.6420897999999999,0.2758789,-5.554199,35.64453,-73.24219,93.09814,-4.542847,170.1288,15.04167,0.5416667,1.1,1
129550,0.1464844,0.9204102,-0.1616211,2.13623,17.63916,-0.24414059999999999,93.35083,-7.124634,172.4194,15.73333,-2.258333,-0.9916666999999999,1
129820,0.07666016,0.7539062999999999,0.2714844,-48.52295,-31.98242,35.33936,92.7356,-9.475708,175.6165,20.50833,-0.9833333999999999,-2.675,1
130190,-0.01025391,1.00293,-0.1567383,-0.9765625,0.24414059999999999,7.629395,92.63123,-7.69043,172.782,-16.45,-82.925,26.1,1
130460,0.3535156,0.9799804999999999,0.2988281,-27.22168,1.525879,-47.30225,93.03223,-5.103149,170.799,19.73333,-0.7166667,-0.5083333,1
130700,0.2114258,0.7338867,0.03222656,-5.249023,9.277344,21.3623,93.97156,-4.520874,170.1013,15.80833,-2.208333,1.133333,1
130910,0.1767578,1.185547,-0.4243164,-1.098633,17.63916,3.4790039999999998,93.44421,-4.883423,176.0669,-14.35,-84.60833,23.6,1
131190,0.36572269999999996,1.483887,-0.03466797,26.61133,5.432129,7.8125,92.0874,-9.871216,176.38,13.68333,0.6666667,0.3416667,1
131390,0.1411133,0.9995117,-0.1489258,-5.615234,-20.08057,7.568359,92.29614,-5.960083,166.1957,-16.55833,-82.96667,30.575,1
131640,0.3461914,1.605469,0.203125,-6.835938,-17.15088,-43.15186,92.87842,-5.009766,161.6748,16.35,2.575,3.966667,1
131920,0.1723633,0.9467772999999999,-0.1098633,6.713867,24.29199,6.225586,93.65845,-4.943848,166.0144,-15.63333,-83.91666,31.35833,1
133170,0.20556639999999998,0.8862304999999999,-0.06445313,7.263184,8.605957,5.981445,92.62024,-3.7133789999999998,173.6224,15.69167,-2.35,-2.566667,1
133410,0.1054688,0.9682617,0.2392578,-47.48535,-26.06201,35.7666,91.25793,-6.729126,174.3805,-15.15,-81.95,24.275,1
133660,-0.04345703,0.7753905999999999,0.02001953,0.8544921999999999,-13.67188,-24.6582,91.97205,-6.086426,172.8589,13.975,-1.025,1.116667,1
133930,0.01611328,1.071289,-0.3076172,3.662109,-8.300781,-7.385254,92.69714,-5.998535,169.4971,-14.875,-83.2,30.18333,1
134240,0.24462889999999998,0.7602538999999999,0.12060549999999999,-21.24023,-5.065918,9.338379,92.43347,-2.548828,168.0579,15.725,-2.575,2.475,1
134530,0.07177734,1.137207,-0.37304689999999996,16.29639,11.77979,5.859375,90.59875,-3.356323,171.4362,-14.225,-83.275,26.86667,1
134840,0.04541016,0.7954102,0.08251953000000001,-1.159668,-28.44238,-12.69531,92.38403,-5.635986,170.0134,15.71667,-1.575,-0.49166669999999996,1
135180,0.09033203000000001,0.9941405999999999,-0.38769529999999996,15.13672,-30.63965,-12.81738,90.84595,-5.372314,164.9927,13.16667,6.116667,-0.7666666999999999,1
135460,0.08837891,0.8339844,0.03271484,-10.92529,30.0293,15.86914,93.09814,-3.587036,165.7013,15.48333,-0.8833333,0.8083332999999999,1
135850,-0.1523438,1.204102,0.1962891,-41.62598,-41.74805,49.37744,90.14832,-6.273193,172.8589,20.275,2.466667,1.883333,1
136190,0.08935547,0.9091796999999999,-0.06201172,1.953125,8.972168,-16.8457,89.57703,-4.938354,170.5133,15.80833,-1.758333,1.075,1
136390,-0.05175781,1.082031,-0.1455078,-9.58252,-30.09033,8.544922,90.38452,-5.097656,170.9692,29.36667,2.358333,0.9583332999999999,1
136600,-0.2739258,0.8149413999999999,0.1123047,28.80859,-45.41016,11.23047,91.93909,1.175537,169.9475,14.51667,1.358333,1.166667,1
136820,0.07324219,0.9804687999999999,-0.12207029999999999,11.71875,-13.79395,15.25879,91.66443,-3.169556,167.8711,15.63333,-2.525,-1.741667,1
137030,0.1342773,1.515137,-0.1757813,5.493164,-4.150391,30.45654,92.91138,-4.290161,168.0524,-16.28333,-84.76667,28.71667,1
137280,0.03125,0.9648437999999999,0.06835938,-6.652832,-6.164551,-31.61621,91.19202,-8.338623,168.371,15.58333,-0.1916667,1.816667,1
137550,0.09960938,0.8745117,-0.08105469,3.051758,12.93945,-0.5493163999999999,91.89514,-4.213257,167.3932,16.90833,-2.125,-1.758333,1
137760,0.06201172,1.013184,-0.3164063,9.277344,-21.66748,-10.92529,91.97205,-4.713135,167.4866,14.20833,4.525,-1.4,1
137980,0.15869139999999998,0.7612304999999999,0.05175781,5.615234,13.79395,19.59229,94.15833,-1.757813,167.168,15.48333,-1.391667,-0.1833333,1
138260,0.27050779999999996,1.100098,-0.2314453,-7.8125,22.3999,3.967285,93.03223,-2.5872800000000002,170.5243,-12.25833,-86.09167,25.66667,1
138520,0.45166019999999996,0.7924804999999999,0.2714844,-0.6713867,1.464844,14.28223,89.6814,-7.014771,167.959,15.16667,1.233333,-0.8583333999999999,1
138760,0.06103516,0.8803711,-0.02197266,1.220703,2.807617,3.173828,91.80725,-3.317871,163.8391,-13.40833,-85.375,29.75,1
139070,0.4482422,1.306641,0.2431641,-5.67627,-3.601074,-54.07715,92.20825,-2.356567,161.0156,17.075,1.366667,2.15,1
139410,0.06298828000000001,0.9555663999999999,-0.11083979999999999,3.417969,21.91162,10.31494,94.86145,-3.641968,170.387,16.18333,-2.125,-0.5333333,1
139680,0.05615234,1.320801,-0.4008789,-6.103516,11.59668,9.338379,92.9718,-3.746338,172.4469,-12.425,-84.39167,23.78333,1
139990,0.08154297,0.8608397999999999,0.05419922,18.73779,-15.74707,-26.12305,91.46667,-4.669189,168.8159,15.19167,-0.5750000000000001,1.233333,1
140220,0.02050781,1.009766,-0.10058589999999999,5.432129,1.342773,11.71875,92.72461,-3.9990229999999998,168.3545,18.76667,-1.275,-1.475,1
140450,0.08349609,0.6728516,0.17382809999999999,16.96777,-34.79004,1.6479489999999999,92.67517,0.8898925999999999,164.7565,-9.4,-88.21667,28.98333,1
140690,0.144043,0.9526367,-0.1645508,-9.155273,-7.141113,13.3667,93.75732,-2.477417,166.9263,15.68333,-3.15,-3.366667,1
140960,0.1928711,0.9970703,-0.09130859,-1.281738,17.63916,-10.13184,91.58752,-1.6479489999999999,165.8167,27.725,0.1833333,3.508333,1
141160,0.32568359999999996,0.6943359,0.2402344,30.82275,25.63477,6.469727,89.59351,-6.784058,165.2509,16.34167,1.3333329999999999,0.09166667,1
141390,0.03613281,0.8901367,-0.044921880000000004,-1.464844,9.094238,0.793457,92.47192,-3.378296,166.3495,-11.41667,-85.35833,26.93333,1
141630,0.07714844,1.038574,-0.375,14.5874,-17.45605,-14.09912,92.23572,-3.988037,166.2231,15.825,6.108333,-2.25,1
141880,0.15869139999999998,0.7973633,0.04394531,-0.7324219,18.18848,15.31982,93.75183,-1.483154,166.5417,15.68333,-1.675,0.8083332999999999,1
142210,0.206543,1.135742,-0.28613279999999996,-2.441406,15.56396,-0.3662109,92.61475,-2.070923,169.7882,15.91667,2.058333,-9.408334,1
142490,-0.02978516,0.7949219,0.09667969,12.02393,-9.155273,-27.28271,92.13684,-5.559082,172.2986,-10.46667,-84.60833,23.04167,1
142760,-0.03466797,0.9462891,-0.07861328000000001,-13.24463,-5.554199,5.493164,93.24097,-3.790283,172.7985,18.04167,-1.75,0.2916667,1
143000,-0.04638672,0.4238281,0.3671875,0.3051758,2.01416,-33.81348,91.19202,-0.08239746,165.7947,-8.7,-87.31667,27.53333,1
143310,0.18164059999999999,0.934082,-0.1191406,-4.943848,14.70947,2.929688,94.36707,-3.092651,165.2124,16.60833,-3.1,-3.8083329999999997,1
143640,0.03515625,1.317871,0.05078125,-55.96924,-37.29248,50.10986,90.23621,-5.723877,167.1021,16.49167,2.075,1.483333,1
143920,0.08984375,0.9541016,-0.06689453000000001,7.202148,-9.765625,-16.35742,90.93933,-3.817749,164.8553,15.94167,-1.575,-0.1666667,1
144250,0.001464844,1.379883,-0.33398439999999996,24.96338,-23.01025,-20.81299,93.15857,-3.938599,164.3555,9.958333,4.15,3.291667,1
144560,0.11474609999999999,0.9487304999999999,-0.01416016,6.164551,33.69141,11.71875,93.87268,-1.8402100000000001,166.8384,15.81667,-1.8,-0.2833333,1
144800,0.09765625,0.9541016,-0.11621089999999999,-14.28223,8.300781,-13.30566,92.74109,-2.015991,171.3483,19.34167,-6.116667,-0.2333333,1
145010,0.10107419999999999,1.081543,-0.0859375,-2.990723,-0.793457,5.737305,91.4502,-7.421265,170.7715,-11.66667,-83.36667,22.44167,1
145250,0.128418,0.9306641,-0.07373047,8.789063,-10.37598,-6.835938,92.17529,-2.466431,165.2618,17.06667,-1.466667,-0.8083332999999999,1
145490,0.121582,1.617676,0.05566406,-6.591797,-24.78027,-26.55029,93.6145,-2.230225,161.131,-9.875,-86.65,28.85833,1
145730,0.1689453,0.9619141,0.02978516,9.277344,8.239746,26.55029,94.38904,-0.04943848,158.0383,16.6,-1.8333329999999999,-0.2166667,1
146020,0.1630859,0.9331054999999999,-0.04980469,-6.835938,9.094238,-4.699707,92.47742,-2.032471,159.3951,-10.65833,-85.975,28.425,1
146300,0.06787109,1.026367,0.056640630000000004,10.13184,-9.338379,-21.78955,90.44495,-6.888428,157.879,-12.866670000000001,-83.525,29.05833,1
146590,0.05761719,0.9072266,-0.03173828,-3.356934,7.324219,5.249023,92.12585,-3.356323,156.6376,16.35,-2.066667,-1.425,1
146840,0.1650391,0.7563477,0.3154297,-16.17432,-0.12207029999999999,-51.63574,92.51587,-1.51062,153.7976,-9.583333,-87.43333,32.99166,1
147110,0.1157227,0.9160155999999999,-0.09130859,0.9155272999999999,24.59717,-1.6479489999999999,95.42725,-3.669434,162.2076,-10.70833,-85.86667,29.1,1
147410,0.1694336,1.113281,-0.23632809999999999,-7.568359,-3.967285,5.92041,94.80652,-2.318115,163.3557,25.29167,1.975,-3.683333,1
147650,0.01025391,0.9311522999999999,0.03564453,-2.380371,-7.69043,-32.71484,92.36206,-7.723389,160.752,-12.51667,-84.35,28.36667,1
147930,0.02539063,0.9667969,-0.030273440000000002,-13.3667,6.713867,11.47461,91.93909,-4.103394,161.8671,-11.625,-85.01667,26.04167,1
148240,0.04541016,1.248535,-0.09814453000000001,13.3667,29.47998,22.82715,94.68018000000001,0.5438232,158.3295,-10.05,-87.39167,29.775,1
148540,0.08544922,0.9321288999999999,-0.1455078,-7.8125,15.44189,-10.49805,95.37781,-2.790527,165.921,18.89167,-5.366667,-1.441667,1
148910,0.05175781,0.7817383,0.06689453000000001,25.02441,-21.42334,-36.07178,91.75232,-5.245972,163.4985,-11.84167,-84.84167,24.90833,1
150120,0.3291016,0.793457,0.2421875,7.141113,14.4043,10.37598,91.49414,-6.954346,154.8853,16.41667,0.9083334,1.183333,1
150310,0.1176758,0.8935546999999999,-0.02539063,10.37598,6.713867,-20.87402,92.08191,-4.268188,155.896,15.025,-1.208333,0.36666669999999996,1
150530,0.008789063,1.061035,-0.39697269999999996,23.25439,-13.79395,-16.35742,94.03748,-3.411255,158.3295,-11.4,-86.26667,29.35833,1
150790,0.06152344,1.367676,-0.17871089999999998,33.08105,4.943848,-1.708984,95.4657,1.450195,156.4343,13.225,0.5833332999999999,0.875,1
151040,0.206543,0.9150391,-0.1479492,5.554199,20.08057,12.08496,96.14136,-2.246704,158.681,16.75,-2.15,-1.683333,1
151250,-0.04199219,1.5229489999999999,-0.06152344,-38.33008,-44.37256,39.48975,94.52087,-4.75708,160.3015,-12.625,-84.49167,27.425,1
151500,0.09375000000000001,0.9047852,0.06445313,-4.943848,-25.87891,-27.70996,90.70862,-6.448975,156.6595,16.71667,-0.9083334,1.633333,1
151740,0.07128906,0.8823242,-0.05615234,-0.6713867,11.35254,-1.708984,92.12036,-3.652954,156.8683,16.26667,-1.925,-1.025,1
151950,0.3510742,1.277832,0.1928711,-21.05713,-5.981445,-58.04443,92.96082,-0.7745361,156.5717,-10.025,-87.725,28.85833,1
152230,0.07763672,0.7978516,0.07275391,-10.25391,15.38086,30.33447,93.15308,-0.9777832,157.901,15.90833,-0.7333333,0.04166667,1
152470,0.20507809999999999,1.163086,-0.22167969999999998,-4.150391,16.17432,1.281738,92.45544,-2.653198,161.2848,-11.16667,-86.05833,25.01667,1
152750,-0.04833984,0.8564453,0.09179688,14.03809,-10.98633,-34.729,92.29065,-6.015015,160.9277,-12.7,-84.975,25.64167,1
153040,-0.02294922,0.9379883,-0.04638672,-8.605957,3.723145,4.150391,92.98828,-3.180542,160.1917,17.875,-2.825,-0.9083334,1
153290,0.1445313,0.5732421999999999,0.3618164,-9.643555,13.61084,-56.33545,91.65894,-0.6207275,154.7974,-9.808333,-88.35833,29.51667,1
153570,0.07324219,0.953125,-0.1044922,12.75635,19.9585,-1.281738,94.08142,-2.70813,164.0533,-10.075,-87.23333,24.30833,1
153870,0.1801758,1.141113,-0.3134766,2.502441,7.385254,2.319336,93.18604,-2.191772,166.0638,20.04167,2.9,-6.6,1
154160,0.1254883,0.9575195,-0.07080078000000001,8.300781,-22.03369,-7.69043,92.94434,-2.911377,160.3894,-11.2,-86.48333,25.69167,1
154420,0.06689453000000001,1.09375,-0.10839839999999999,0.9765625,-15.93018,8.056641,92.90039,-4.015503,159.4226,21.675,-5.333333,1.516667,1
154660,0.04833984,0.6259766,0.2192383,25.39063,-23.37646,-18.12744,93.07617,0.2307129,155.5499,18.49167,-0.6416666999999999,1.4,1
154870,0.08496094,0.9243163999999999,-0.1411133,-9.887695,14.64844,-3.112793,94.97681,-2.823486,160.2576,-10.625,-87.68333,26.025,1
155110,-0.04003906,1.236816,-0.4155273,-5.615234,16.47949,13.73291,93.40576,-2.636719,161.9385,11.85833,6.166667,-4.675,1
155360,-0.02832031,0.8374022999999999,0.04199219,2.746582,-20.1416,-25.08545,92.58728,-4.306641,160.351,-11.91667,-87.31667,24.825,1
155610,0.04199219,0.9877929999999999,-0.1157227,-19.22607,0.8544921999999999,7.385254,91.81274,-3.2958979999999998,159.3567,16.39167,-5.666667,1.558333,1
155880,0.47363279999999996,1.064453,0.3500977,-16.05225,-28.62549,-58.22754,93.16406,-0.49438479999999996,156.5497,21.58333,-1.058333,2.416667,1
156100,0.1518555,0.9228516,-0.10644529999999999,13.3667,16.72363,3.4790039999999998,95.33936,-2.109375,156.5936,-10.8,-90.84167,29.5,1
156370,-0.03173828,1.474609,0.015625,-26.36719,-36.86523,49.1333,93.0542,-4.32312,159.0765,-12.775,-88.825,25.83333,1
156670,-0.02001953,0.8242187999999999,0.09082031,12.02393,-24.6582,-42.17529,92.14783,-5.570068,158.2745,16.23333,-1.858333,0.8,1
156910,0.01171875,1.013672,-0.1176758,4.577637,-4.089355,4.577637,92.59827,-4.01001,157.2913,22.025,-4.416667,2.0,1
157190,0.22900389999999998,0.9423828,-0.017089840000000002,17.7002,28.80859,36.43799,96.08093,-0.2636719,155.7312,-9.591666,-92.41666,31.00833,1
157460,0.03417969,0.9257812999999999,-0.2075195,-8.728026999999999,5.737305,-6.04248,96.31714,-2.356567,160.0818,16.70833,-2.158333,-0.025,1
157740,0.2119141,0.7470703,0.27880859999999996,-3.234863,9.82666,14.5874,92.59277,-5.476685,160.0488,20.875,-1.425,1.6,1
158020,0.1025391,0.9316405999999999,-0.06982422,-4.638672,3.356934,-1.586914,93.76282,-2.515869,163.2349,16.73333,-1.975,-2.025,1
158390,0.04345703,1.175293,-0.02734375,40.22217,33.02002,-2.380371,94.41101,0.7800292999999999,163.6469,-7.075,-93.45,25.34167,1
158650,0.13476559999999999,0.8984375,-0.08740234,3.234863,20.56885,-1.159668,95.80078,-2.938843,171.6943,15.975,-3.283333,-1.908333,1
158900,0.21777339999999998,1.186035,-0.2578125,-4.394531,7.8125,-3.540039,95.45471,-1.774292,173.3093,26.73333,2.216667,-3.941667,1
159110,-0.05126953,0.8681641,0.03955078,12.39014,-54.32129,-41.44287,94.52087,-5.625,166.701,-9.933333,-89.86667,25.16667,1
159350,0.1132813,0.9501953,-0.11083979999999999,-17.57813,-18.37158,4.150391,95.42725,-1.862183,158.9227,17.7,-3.491667,-0.1,1
159590,-0.07714844,0.6982421999999999,0.1616211,29.54102,-45.6543,-21.3623,94.71313,1.483154,152.3694,-7.533333,-91.775,34.03333,1
159840,0.1298828,0.9116211,-0.1484375,-0.4882813,14.52637,7.995605,97.30591,-2.307129,150.8862,16.2,-3.858333,-2.083333,1
160120,0.28613279999999996,1.615234,-0.37255859999999996,32.59277,-10.43701,46.63086,95.92712,-3.7133789999999998,154.3634,-11.80833,-86.25833,31.19167,1
160430,0.10498049999999999,0.8784179999999999,-0.024902340000000002,-1.403809,-49.56055,-16.60156,94.35059,-4.394531,152.1442,14.78333,-1.7083329999999999,-0.75,1
160720,0.18945309999999999,1.318848,-0.06005859,19.04297,-7.019043,-28.13721,93.81226,-3.861694,150.5621,-8.916667,-88.13333,32.825,1
161030,0.05957031,0.9970703,-0.05078125,-0.8544921999999999,35.52246,4.577637,94.60327,-2.400513,154.8907,16.625,-2.733333,-1.55,1
161330,0.02001953,1.7309569999999999,-0.002929688,39.97803,-27.28271,55.60303,93.79578,-4.031982,158.2745,-12.10833,-83.13333,27.5,1
161630,0.203125,0.8613280999999999,-0.05322266,16.29639,-0.8544921999999999,-10.80322,93.89465,-4.3396,158.6591,-10.4,-84.61667,28.025,1
161900,0.030273440000000002,1.016602,-0.07226563,-1.708984,-6.896973,0.06103516,93.99902,-5.092163,159.4775,28.35,-0.6000000000000001,1.525,1
162150,0.2729492,0.8110352,0.028808590000000002,16.35742,18.67676,38.0249,96.36108,0.1153564,157.0825,-8.491667,-85.99167,29.43333,1
162460,0.21435549999999998,1.067871,-0.1796875,-13.85498,18.43262,-5.737305,94.42749,-0.8514404,160.3839,28.15,-0.5833332999999999,-1.416667,1
162760,-0.02197266,0.8798828,0.08886719,6.408691,-20.26367,-37.29248,92.58728,-5.586548,157.3187,16.575,-1.225,0.75,1
163100,-0.01416016,1.032227,-0.08349609,3.723145,3.356934,9.460449,92.53235,-4.630737,153.9459,25.33333,-0.31666669999999997,2.216667,1
163340,0.2817383,0.8691405999999999,0.03564453,22.82715,42.29736,33.20313,96.28967,-0.7415771,152.688,-9.65,-84.475,30.00833,1
163580,0.03222656,0.9526367,-0.20507809999999999,-17.08984,15.56396,-8.544922,96.56982,-2.636719,160.1752,16.56667,-3.066667,-0.7000000000000001,1
163820,0.4848633,0.5737304999999999,0.2749023,20.87402,6.774902,7.568359,92.28516,-7.476196,158.67,-12.16667,-80.30833,23.29167,1
164060,0.2324219,0.9550780999999999,-0.06005859,6.652832,-22.27783,-14.52637,93.14758,-3.922119,156.9067,15.91667,-1.6,-2.025,1
164340,0.004394531,0.9609375,-0.08886719,5.249023,-5.187988,12.57324,92.74658,-4.691162,156.5497,21.55,-6.091667,3.083333,1
164550,-0.3198242,0.4067383,0.22949219999999998,33.3252,-3.112793,-35.15625,93.1366,0.8679199,155.4126,16.64167,0.4583333,0.30000000000000004,1
164770,0.06591797,0.9423828,-0.171875,-5.493164,16.35742,-7.629395,96.22375,-2.883911,160.7135,16.03333,-2.183333,-0.6166667,1
165050,0.4482422,0.5571288999999999,0.4560547,-13.79395,-18.49365,43.15186,92.55981,-6.454468,161.5924,-11.4,-83.44167,20.23333,1
165310,0.002929688,0.855957,0.01318359,-6.286621,-43.64014,-22.76611,94.79553,-4.504395,161.4111,15.45833,-1.766667,0.425,1
166550,-0.07128906,0.7988280999999999,0.07275391,13.30566,-18.43262,-32.59277,94.30115,-5.905151,163.2019,15.36667,-1.825,1.45,1
166780,0.04833984,1.035156,-0.2827148,2.807617,-3.112793,-12.26807,94.3396,-5.916138,162.0648,24.73333,3.191667,-4.741667,1
167060,0.2148438,0.8271484,0.05859375,4.821777,44.49463,18.79883,96.17432,-1.922607,165.3827,-7.7,-92.80833,18.83333,1
167330,0.05517578,0.9208984,-0.1987305,-10.13184,17.39502,-11.1084,96.52588,-3.625488,172.9852,17.94167,-4.725,1.625,1
167610,0.6108397999999999,0.7509766,0.26318359999999996,15.86914,19.47021,23.62061,94.47693,-8.805541999999999,171.0077,16.325,0.7666666999999999,-2.15,1
167880,0.07958984,0.9072266,-0.1386719,-10.0708,13.06152,8.239746,95.87769,-5.905151,176.2592,-7.183333,-92.08334,12.575,1
168150,-0.1259766,1.263672,-0.45117189999999996,31.18896,-13.18359,-27.771,96.85547,-6.377563,177.9236,8.05,3.833333,4.441667,1
168440,0.1450195,0.8964844,-0.04003906,3.234863,46.08154,4.333496,99.17358,-3.614502,-177.0502,15.09167,-3.583333,-1.816667,1
168640,0.1181641,0.8999022999999999,-0.2304688,6.04248,13.30566,-15.38086,98.94287,-2.570801,-172.337,18.525,-5.208333,-0.05833333,1
168860,0.01220703,1.105469,-0.02197266,4.089355,15.13672,-36.74316,98.50342,-9.255981,-168.4698,-1.7083329999999999,-94.86667,8.966666,1
169100,0.08740234,0.8935546999999999,-0.137207,-16.96777,3.234863,9.155273,97.94312,-5.366821,-171.4911,17.16667,-2.65,-1.883333,1
169360,-0.05761719,1.043945,-0.5351563,26.42822,-12.3291,-15.50293,98.12439,-5.778809,-171.3483,9.558333,6.758333,-1.758333,1
169580,0.24072269999999998,0.8764647999999999,-0.05761719,-6.9580079999999995,34.48486,10.74219,99.75037,-3.218994,-169.8761,15.51667,-3.225,-0.1916667,1
169870,0.10693359999999999,1.020508,-0.269043,2.075195,25.87891,10.37598,98.04199,-3.449707,-163.6139,4.091667,-96.25833,9.175,1
170130,0.02539063,1.094238,0.05517578,4.272461,18.06641,-36.25488,97.20154,-9.28894,-161.6144,15.40833,-0.1416667,0.6666667,1
170410,0.05419922,1.018555,-0.1181641,-11.71875,-7.568359,11.16943,96.75659,-5.015259,-167.4536,20.58333,-7.683333,2.1,1
170690,0.10644529999999999,1.050781,-0.0034179690000000003,-5.7983400000000005,40.46631,25.39063,96.08093,0.09338379000000001,-168.0414,4.808333,-94.83334,10.75,1
170950,0.1572266,0.9155272999999999,-0.09960938,-2.746582,20.75195,-3.540039,95.86121,-4.092407,-162.2351,17.20833,-2.583333,-2.0,1
171190,0.02978516,0.6928711,0.44189449999999997,-40.71045,-37.23145,32.83691,92.2467,-7.575073,-159.104,3.35,-89.675,5.725,1
171500,0.11865229999999999,0.8774413999999999,-0.06982422,13.48877,6.835938,4.943848,94.13086,-4.125366,-161.8616,5.041667,-91.99167,8.7,1
171770,0.2304688,1.091797,-0.3666992,-0.7324219,-12.3291,-16.60156,94.20776,-5.438232,-162.2076,19.65,5.233333,-1.025,1
172020,0.2729492,0.7670897999999999,0.07714844,-0.4882813,39.36768,14.22119,96.87744,-3.4552,-160.6531,7.375,-92.89167,9.308333,1
172320,0.1733398,1.215332,-0.45117189999999996,-2.197266,7.202148,14.64844,96.026,-3.966064,-153.3966,9.791667,6.341667,-4.916667,1
172670,0.03222656,0.7856445,0.02685547,0.6103516,-16.35742,-25.87891,95.39429,-6.135864,-154.0173,15.475,-2.55,0.3416667,1
172860,-0.06933594,1.024902,-0.14697269999999998,-16.11328,10.80322,16.29639,95.3009,-6.866455,-152.8088,17.93333,-8.925,4.95,1
173090,0.12060549999999999,1.138672,-0.14306639999999998,-11.84082,59.57031,35.70557,97.44324,-0.4724121,-149.6722,14.75833,-94.25,7.341667,1
173320,0.04199219,0.9316405999999999,-0.1777344,4.516602,26.97754,-6.530762,98.08594,-3.9990229999999998,-139.6033,16.05833,-2.383333,-0.3916667,1
173600,0.05126953,1.016602,-0.3510742,17.76123,-5.615234,21.3623,97.4762,-4.081421,-138.3893,9.616667,6.733333,0.7333333,1
173810,0.1328125,0.8725586,-0.020996090000000002,-21.97266,-45.41016,-17.8833,97.86072,-4.762573,-141.0864,16.79167,-94.275,6.416667,1
174050,0.06591797,0.9301758,-0.08349609,-5.310059,7.629395,6.164551,96.36658,-5.971069,-140.4712,20.80833,-8.591666,4.05,1
174320,0.1552734,1.026367,-0.05322266,1.7700200000000001,36.92627,31.61621,97.93213,-0.7690429999999999,-140.3833,20.05833,-95.10833,6.45,1
174580,0.0234375,0.9624022999999999,-0.1870117,-3.173828,15.86914,-7.873535,99.06372,-4.103394,-133.5608,16.00833,-3.016667,-0.15833329999999998,1
174830,0.4296875,0.5512695,0.4067383,0.3662109,-5.187988,37.53662,95.48767,-8.146362,-133.3191,19.775,-94.01667,4.55,1
175130,0.05419922,0.9487304999999999,-0.121582,-3.2958979999999998,8.300781,8.544922,97.81128,-5.93811,-129.5398,16.39167,-1.916667,-1.25,1
175430,0.017089840000000002,0.5727538999999999,0.30126949999999997,3.234863,30.27344,-77.33154,96.08093,-0.8074950999999999,-131.1932,26.44167,-95.58334,5.708333,1
175740,0.04003906,0.9667969,-0.20605469999999998,-3.417969,12.20703,-5.859375,99.51416,-3.2958979999999998,-121.9427,29.6,-96.30833,7.666667,1
176010,0.04345703,1.239258,-0.41845699999999997,20.50781,-10.98633,29.29688,98.15735,-3.466187,-121.6461,10.0,5.091667,3.5,1
176260,0.06445313,0.8300780999999999,-0.044921880000000004,-8.789063,-39.42871,-18.9209,97.05322,-5.388794,-123.9972,15.71667,-2.741667,-0.8250000000000001,1
176560,0.04345703,1.402832,-0.07324219,16.23535,-25.26855,-13.06152,97.77832,-4.570313,-124.4257,12.60833,3.183333,4.866667,1
176860,0.004394531,0.9375,-0.1054688,-1.464844,41.1377,1.525879,98.16284,-2.2796629999999998,-123.6896,16.11667,-3.533333,-2.2,1
177200,0.01904297,1.5,-0.23779299999999998,11.16943,-11.84082,39.55078,97.49268000000001,-3.120117,-118.9929,12.85,3.916667,6.566667,1
177440,0.1772461,0.8286133,-0.03466797,10.25391,-32.04346,-8.056641,97.37732,-4.312134,-122.3273,28.51667,-95.69167,8.2,1
177680,0.08203125,1.019043,-0.1450195,-1.403809,-4.272461,-3.723145,97.88269,-5.443726,-122.7997,30.15833,-1.35,0.7166667,1
177920,0.32519529999999996,0.8300780999999999,0.04296875,4.699707,18.67676,31.98242,99.38782,0.1263428,-126.9305,29.525,-95.96667,8.833333,1
178160,0.09667969,0.9082030999999999,-0.21435549999999998,-14.83154,0.9765625,-10.92529,99.36584,-1.768799,-123.2721,17.16667,-3.8083329999999997,-0.2583333,1
178440,-0.1103516,1.671875,-0.19726559999999999,7.873535,-8.605957,46.56982,97.69043,-2.263184,-121.8109,12.11667,2.866667,1.85,1
178660,0.2026367,0.9252929999999999,-0.07226563,3.967285,-21.60645,-7.69043,95.31189,-3.284912,-126.7438,27.31667,-94.4,6.058333,1
178940,0.08740234,1.252441,-0.2421875,15.56396,-30.70068,-17.51709,95.72937,-3.944092,-128.2104,27.34167,-93.93333,5.766667,1
179230,0.1679688,0.9541016,-0.01464844,10.37598,21.78955,39.0625,97.17407,0.0769043,-127.8424,15.65,-0.48333329999999997,-2.166667,1
179480,0.1289063,0.9614258,-0.19726559999999999,0.24414059999999999,11.35254,-11.84082,96.17981,-1.658936,-123.2556,26.20833,-1.316667,2.366667,1
179750,-0.02783203,0.9072266,0.08300781,0.4882813,-2.929688,-38.69629,94.87244,-7.201538,-124.0411,27.81667,-94.34167,5.475,1
180050,0.02392578,0.9721679999999999,-0.09277344,-15.19775,-4.943848,7.507324,95.87769,-3.90564,-125.7715,16.275,-1.4,-0.9916666999999999,1
180290,0.015625,0.3989258,0.31689449999999997,-5.737305,35.27832,-91.97998,93.90564,1.170044,-130.6494,19.73333,-1.416667,0.3416667,1
180570,0.078125,0.9804687999999999,-0.1928711,9.155273,10.74219,-4.699707,97.38831,-2.559814,-125.3375,30.5,-95.85,6.933333,1
180850,0.3837891,0.7099609,0.3837891,-3.601074,-37.90283,46.81396,94.54285,-7.119141,-127.2272,25.60833,-95.63333,5.616667,1
181160,0.1762695,0.8925780999999999,-0.11669919999999999,3.356934,11.59668,8.605957,95.9436,-4.059448,-129.776,26.85833,-96.00833,6.083333,1
181520,-0.04003906,0.5688477,0.3144531,-12.93945,32.04346,-87.1582,95.19104,0.1647949,-128.5455,18.99167,-0.975,0.9583332999999999,1
181720,0.1196289,0.9516602,-0.060546880000000004,-1.89209,34.05762,3.417969,97.78381,-1.658936,-124.8651,15.68333,-2.883333,-1.4583329999999999,1
181940,0.1210938,0.9082030999999999,-0.1176758,-2.685547,8.056641,-10.80322,96.51489,-1.554565,-121.2671,18.475,-6.491667,0.6583333,1
183130,0.1538086,0.9033203,-0.09228516,-13.97705,7.507324,-7.93457,95.28992,-2.285156,-129.4025,17.49167,-6.933333,-0.4666667,1
183350,0.05419922,0.7973633,0.32470699999999997,-32.53174,5.615234,46.93604,94.6637,-5.839233,-128.3093,21.11667,-3.1,2.0,1
183560,0.09570313,0.9208984,-0.09277344,6.591797,8.422852,7.019043,95.81726,-4.081421,-126.524,29.3,-95.83334,7.758333,1
183800,0.05078125,0.9858397999999999,-0.41992189999999996,21.1792,-16.72363,-13.00049,95.42175,-4.768066,-127.1832,11.68333,5.841667,-4.65,1
184080,0.1210938,1.216797,-0.1552734,1.6479489999999999,36.19385,14.46533,96.69067,0.8953857,-127.8918,14.64167,-0.4333333,-0.008333334000000001,1
184290,0.16650389999999998,0.9404296999999999,-0.1435547,5.615234,5.615234,-2.746582,97.36633,-2.757568,-123.7939,15.45,-1.316667,-2.366667,1
184510,0.3393555,0.5639647999999999,0.3442383,-48.0957,-40.77148,43.76221,94.21875,-5.998535,-125.2771,20.50833,-0.975,-0.4166667,1
184790,0.140625,0.8710937999999999,-0.1137695,6.225586,-4.02832,3.723145,95.44922,-2.702637,-131.5448,27.40833,-94.99167,5.941667,1
185050,0.1254883,1.052734,-0.34179689999999996,2.075195,-9.338379,-12.93945,94.92188,-4.169312,-131.6766,15.65833,5.75,-2.675,1
185290,0.2119141,0.7719727,0.04199219,14.5874,36.49902,19.59229,96.84448,-1.131592,-129.7211,30.26667,-95.90833,6.983333,1
185600,0.125,1.17627,-0.39550779999999996,-7.629395,-7.69043,15.50293,96.1084,-2.1698,-125.6946,30.29167,-95.36667,5.666667,1
185880,0.1489258,1.140625,-0.03515625,6.774902,10.55908,10.37598,93.81775,-8.12439,-127.6611,13.73333,1.058333,1.375,1
186120,-0.009765625,0.9853516,-0.1567383,-18.00537,11.59668,10.0708,94.39453,-4.658203,-126.3208,28.88333,-95.60833,4.483333,1
186420,0.4453125,1.200195,-0.03808594,6.286621,-25.02441,8.911133,95.55359,1.774292,-129.4135,13.35833,1.091667,-0.8833333,1
186760,0.1806641,0.8959961,-0.1235352,-24.84131,15.625,-9.338379,94.01001,-1.279907,-127.8149,18.63333,-7.766667,0.48333329999999997,1
186970,0.1416016,0.6074219,0.4018555,-77.39258,-38.0249,64.7583,92.0929,-6.70166,-128.3093,19.475,-1.066667,0.47500000000000003,1
187190,0.11621089999999999,0.902832,-0.10693359999999999,11.71875,-3.4790039999999998,2.929688,94.11438,-3.120117,-132.6874,27.10833,-96.38333,4.708333,1
187420,0.1123047,1.016602,-0.4477539,25.14648,-7.080078,-19.89746,93.76831,-4.163818,-132.6105,7.075,5.716667,-2.108333,1
187690,0.05419922,1.135254,-0.07226563,0.3662109,45.95947,31.12793,95.18555,1.142578,-132.1216,15.65,-1.483333,-0.49166669999999996,1
187910,0.1694336,0.9926758,-0.15820309999999999,0.3662109,0.6103516,-12.63428,95.74036,-1.878662,-125.722,32.80833,-97.03333,7.866667,1
188160,0.4208984,0.574707,0.4082031,3.540039,-3.967285,29.72412,93.16406,-5.712891,-128.5181,19.35,-0.06666667,0.6583333,1
188400,0.04052734,0.8964844,-0.022460940000000002,-3.723145,-33.75244,-24.84131,94.7406,-4.509888,-128.6389,15.26667,-1.683333,-0.6666667,1
188610,0.1420898,0.9941405999999999,-0.4794922,26.48926,-16.6626,-15.44189,93.63647,-4.592285,-129.7101,29.125,-96.0,6.416667,1
188860,0.1054688,1.219238,-0.09960938,2.990723,32.04346,10.37598,95.07019,1.241455,-131.6382,14.19167,-0.06666667,0.5916667,1
189130,0.1689453,0.9301758,-0.1191406,-12.87842,2.746582,-12.26807,94.8175,-2.197266,-128.4137,32.25834,-95.64167,7.325,1
189410,0.10693359999999999,1.148926,-0.03076172,-8.483887,-7.751465,0.0,93.5376,-8.085938,-128.7872,27.86667,-95.00833,5.833333,1
189710,0.04248047,0.9477538999999999,-0.12255859999999999,13.67188,10.55908,-0.7324219,94.61975,-3.521118,-129.765,16.56667,-2.608333,-2.441667,1
189950,0.3520508,1.104004,0.2519531,-9.216309,22.03369,-98.02246,94.06494,-1.246948,-130.556,33.50834,-94.35833,6.05,1
190230,0.2280273,0.9804687999999999,-0.07617188,3.112793,4.882813,3.662109,94.89441,-2.191772,-126.9305,33.63334,-95.06667,7.025,1
190530,0.1987305,1.111328,-0.2724609,4.02832,9.155273,1.220703,94.31213,-1.494141,-125.6726,28.20833,3.358333,-3.366667,1
190820,0.21777339999999998,0.9604492,-0.09472656,16.78467,-38.57422,-13.61084,95.16907,-2.466431,-129.8804,32.10833,-95.49167,6.166667,1
191090,0.04150391,1.040527,-0.07128906,-1.89209,-10.25391,2.685547,94.61426,-4.202271,-129.9078,25.625,-1.85,1.308333,1
191320,-0.02294922,0.5947266,0.18261719999999998,25.81787,-36.92627,-8.911133,94.85596,1.554565,-134.2584,19.04167,-1.125,-1.016667,1
191540,0.10644529999999999,0.9213867,-0.15869139999999998,-18.85986,2.868652,-3.051758,95.44922,-2.427979,-132.2479,31.40833,-95.05,3.95,1
191770,0.01269531,1.133789,-0.394043,3.051758,12.51221,16.8457,93.9386,-2.318115,-131.9458,10.55833,6.058333,0.425,1
192020,0.06347656,0.8627929999999999,0.02929688,-0.7324219,-18.12744,-25.20752,93.93311,-3.466187,-133.429,29.60833,-95.53333,2.691667,1
192270,0.05517578,0.9848633,-0.1181641,-17.02881,6.225586,9.94873,93.30139,-3.669434,-132.4841,17.35833,-4.766667,0.48333329999999997,1
192550,0.1132813,1.20459,0.04736328,22.33887,-3.723145,-10.37598,95.57007,1.6149900000000001,-135.9338,31.43333,-97.275,4.283333,1
192860,0.09130859,0.9223633,-0.2006836,-17.7002,-3.4790039999999998,-10.00977,96.49841,-2.175293,-132.2534,18.725,-4.258333,-0.49166669999999996,1
193160,0.253418,0.9448242,0.21728519999999998,7.507324,36.86523,11.2915,93.73535,-7.36084,-132.0886,27.34167,-97.04166,3.05,1
193490,0.07324219,0.9013671999999999,-0.1191406,-1.6479489999999999,13.85498,5.554199,94.73511,-4.586792,-129.0948,16.875,-1.616667,0.0,1
193760,-0.1279297,0.7954102,0.168457,23.31543,-22.2168,-1.159668,96.03149,0.3515625,-127.4084,34.94167,-97.69167,6.308333,1
194060,0.1396484,0.9091796999999999,-0.10888669999999999,-17.21191,-4.333496,-3.051758,96.67419,-2.477417,-126.9196,33.93333,-97.64167,6.933333,1
194340,0.2875977,1.023438,-0.07373047,-7.019043,5.371094,0.3662109,94.20776,-1.6754149999999999,-127.5073,25.36667,-0.975,-4.4,1
194580,0.08398438,0.9331054999999999,0.08203125,1.708984,-16.6626,-19.16504,91.8512,-6.734619,-128.0566,30.56667,-95.75833,4.35,1
194890,0.0703125,0.9697266,-0.140625,-12.87842,-5.432129,10.31494,93.70239,-4.2462159999999995,-130.5341,16.35833,-5.383333,1.441667,1
195200,0.2797852,1.021973,0.005859375,0.7324219,-18.18848,-6.530762,95.19104,0.4998779,-137.0764,13.83333,0.6833332999999999,-0.5166666999999999,1
195530,0.09472656,0.9189453,-0.1489258,-18.9209,2.441406,-7.080078,94.32861,-2.746582,-134.9451,17.25833,-4.1,0.01666667,1
195770,0.44189449999999997,0.8178711,0.1948242,35.88867,23.92578,8.483887,92.02148,-6.536865,-134.4232,27.01667,-93.55833,2.991667,1
196010,0.1484375,0.9130859,0.002441406,12.3291,-21.1792,-21.11816,93.09814,-3.630981,-134.9835,15.25,-1.033333,-0.8250000000000001,1
196250,-0.06494141,1.029297,-0.40332029999999996,16.41846,-14.16016,-10.0708,93.94409,-4.356079,-135.2142,27.23333,-93.95834,3.133333,1
196500,0.16650389999999998,1.105957,-0.07275391,17.51709,-1.708984,8.361816,95.59204,0.9338379,-136.5436,13.96667,0.8,0.5083333,1
196770,0.1850586,0.980957,-0.12402339999999999,-10.49805,-3.662109,4.577637,96.63574,-1.939087,-134.6704,15.95,-2.75,-2.008333,1
196990,-0.001953125,1.453613,-0.1879883,11.84082,-10.13184,28.19824,94.25171,-2.15332,-134.6649,26.75,-94.05833,1.25,1
197270,0.15625,0.8710937999999999,0.01806641,9.399414,-18.18848,-22.52197,92.95532,-3.960571,-138.0157,26.3,-95.09167,1.558333,1
197560,0.07861328000000001,1.0,-0.09716797,-14.22119,9.338379,13.42773,93.1366,-4.048462,-136.6809,17.36667,-3.925,0.36666669999999996,1
197810,0.04296875,1.003418,0.08349609,15.86914,-20.75195,-7.751465,95.224,0.7965088,-140.8667,14.56667,0.5416667,0.3833333,1
198080,0.06982422,0.9282227,-0.1137695,-14.64844,9.460449,-5.67627,94.97131,-2.653198,-135.6097,29.01667,-97.46667,3.058333,1
198380,-0.01269531,1.105469,-0.3623047,1.7700200000000001,10.13184,5.981445,93.88367,-2.373047,-134.3518,12.175,6.708333,-1.016667,1
199600,0.10644529999999999,1.09668,-0.38037109999999996,5.371094,17.39502,9.521484,94.91638,-2.25769,-137.6257,27.84167,-98.39167,5.591667,1
199900,0.07421875,0.8789062999999999,0.02783203,14.52637,-6.591797,-28.19824,94.52637,-5.751343,-134.9396,16.30833,-1.608333,0.8416665999999999,1
200220,0.001464844,1.05127,-0.09130859,-4.760742,-0.5493163999999999,6.04248,94.72961,-4.762573,-133.8519,29.075,-98.20834,6.85,1
200520,0.08642578000000001,1.177246,-0.1328125,2.868652,5.554199,22.09473,96.64673,0.45593259999999997,-137.5928,15.43333,-0.5916667,0.2083333,1
200860,0.14697269999999998,0.9672852,-0.1137695,-18.79883,-6.591797,-13.00049,94.61426,-2.581787,-136.2085,17.06667,-6.716667,-0.1916667,1
201060,0.2270508,0.8828125,0.23730469999999998,-37.29248,-7.873535,46.93604,93.30688,-4.971313,-136.2524,17.075,1.275,2.925,1
201290,0.09570313,0.9604492,-0.09863281,10.0708,-9.58252,-9.399414,96.3501,-3.482666,-131.7755,32.09167,-97.4,9.225,1
201550,0.001953125,1.02002,-0.048828130000000004,-0.9155272999999999,9.70459,7.995605,95.63049,-4.740601,-130.6989,21.06667,-6.741667,1.516667,1
201790,-0.1235352,0.5854492,0.2241211,26.24512,-2.380371,-24.4751,94.83398,-0.8294678,-131.9843,19.98333,-1.558333,0.6916667,1
202010,0.07861328000000001,0.9321288999999999,-0.09667969,-9.887695,3.173828,-2.13623,95.33386,-3.301392,-127.7161,34.575,-95.80833,8.941667,1
202250,0.269043,1.028809,-0.19384769999999998,3.723145,3.78418,-0.24414059999999999,93.35632,-2.070923,-128.8367,26.275,2.125,-5.641667,1
202500,0.2749023,0.9477538999999999,0.1533203,19.71436,38.26904,13.12256,92.77405,-7.141113,-127.9468,15.2,1.358333,1.55,1
202710,0.08496094,0.9008788999999999,-0.04394531,-10.43701,2.868652,1.403809,94.63623,-3.724365,-127.8204,34.475,-94.56667,8.408334,1
202960,0.01953125,1.053711,-0.38769529999999996,24.59717,-14.83154,-17.51709,95.42725,-3.751831,-127.1448,10.05,4.058333,2.075,1
203310,0.1489258,0.9160155999999999,-0.09521484000000001,-13.42773,-7.385254,2.258301,96.54785,-2.070923,-133.0225,33.40833,-94.2,8.85,1
203560,0.22900389999999998,1.0698239999999999,-0.2402344,-1.525879,3.356934,2.380371,94.20776,-1.483154,-133.9343,23.55,2.175,-8.116667,1
203830,-0.04785156,0.8857421999999999,0.07275391,10.43701,-15.86914,-24.6582,93.1311,-5.894165,-133.6267,31.325,-92.83334,5.966667,1
204140,0.08251953000000001,0.9345703,-0.09228516,-8.789063,15.25879,10.92529,93.5376,-4.498901,-133.8245,16.61667,-5.358333,1.591667,1
204440,0.2202148,1.071777,-0.06835938,7.69043,18.85986,-0.9765625,94.76807,0.07141113,-134.6265,34.775,-92.54166,6.441667,1
204750,0.07958984,0.9487304999999999,-0.1489258,-18.73779,-20.32471,-7.019043,94.30664,-3.175049,-131.2152,17.18333,-2.916667,-0.425,1
205050,0.31787109999999996,0.7939453,0.21728519999999998,35.33936,45.8374,14.89258,93.14758,-6.740112,-130.4791,32.96667,-92.85,6.05,1
205390,0.1303711,0.9477538999999999,-0.08447266,-8.300781,-7.629395,3.4790039999999998,95.72937,-2.60376,-131.9403,16.15833,-0.675,-0.5833332999999999,1
205630,0.4384766,0.7724609,0.38085939999999996,-15.31982,-12.51221,-49.37744,95.10864,-1.6479489999999999,-136.0492,34.14167,-92.83334,5.391667,1
205870,0.23681639999999998,0.8295897999999999,0.02050781,-3.417969,18.55469,16.78467,97.30042,-1.356812,-135.4065,15.90833,-2.2,-0.5416667,1
206120,0.22949219999999998,1.041016,-0.2001953,-4.699707,-9.155273,1.281738,95.19653,-2.070923,-133.72560000000001,34.55833,-92.75833,4.45,1
206350,0.2563477,0.9350586,0.190918,3.967285,33.75244,17.63916,93.97156,-6.707153,-134.1925,15.625,1.133333,1.7,1
206620,0.08447266,0.9555663999999999,-0.09423828000000001,17.63916,2.380371,-15.625,95.0592,-4.279175,-132.4951,15.11667,-1.7083329999999999,-0.75,1
206860,-0.11279299999999999,1.1533200000000001,-0.44970699999999997,32.53174,-5.187988,-16.96777,95.96558,-4.273682,-129.8859,36.54167,-94.30833,4.808333,1
207130,0.140625,0.809082,0.001464844,8.239746,-16.29639,16.90674,96.73462,-1.021729,-134.8572,34.90833,-95.40833,5.033333,1
207430,0.19775389999999998,0.9482421999999999,-0.1479492,-11.71875,-10.43701,-6.469727,95.50964,-2.142334,-138.241,18.025,-2.416667,-0.9833333999999999,1
207670,0.1757813,0.8940429999999999,0.2480469,2.01416,48.64502,12.146,92.65869,-6.932373,-137.851,15.59167,1.325,1.641667,1
207950,0.08837891,0.8608397999999999,-0.030273440000000002,-3.051758,8.178711,-0.24414059999999999,93.95508,-2.955322,-138.3234,32.33333,-95.25833,1.691667,1
208240,-0.004394531,1.04834,-0.18212889999999998,-1.159668,-7.019043,-3.90625,93.99902,-4.328613,-136.5436,22.75,1.308333,-2.5,1
208490,0.09814453000000001,1.008301,0.01611328,0.1831055,26.55029,21.97266,95.04822,-0.2526855,-135.2142,17.05833,-1.566667,1.483333,1
208770,0.09814453000000001,0.9189453,-0.1459961,-15.07568,-2.197266,-9.94873,94.20227,-2.625732,-132.7863,35.85,-96.06667,3.5,1
209050,-0.011230470000000001,0.8969727,0.015625,3.967285,68.54248,3.90625,91.97205,-7.157593,-124.8047,36.875,-96.25833,4.158333,1
209360,0.03466797,0.9350586,-0.04199219,-0.3662109,13.97705,3.662109,94.43848,-3.817749,-118.938,41.725,-97.21667,8.15,1
209720,0.48974609999999996,0.9731445,0.2880859,-34.17969,21.11816,-68.84766,94.11438,-2.04895,-119.9213,17.71667,0.1333333,1.975,1
209920,0.09765625,0.7734375,0.07128906,4.821777,21.85059,24.29199,95.44373,-1.884155,-117.2296,16.275,-1.625,-1.2,1
210140,0.11425779999999999,0.9199219,-0.1098633,-20.01953,1.098633,-6.9580079999999995,94.55933,-3.251953,-115.5981,15.9,-2.533333,-1.183333,1
210350,0.41210939999999996,0.6699219,0.2529297,60.79102,45.47119,8.117676,92.72461,-7.877197,-113.6975,41.39167,-98.01667,9.375,1
210590,0.18164059999999999,0.9145508,0.03808594,-2.563477,-41.3208,-21.91162,95.04272,-4.334106,-115.0214,42.525,-98.13333,10.125,1
210840,0.1279297,0.9052734,-0.1279297,-18.85986,-7.568359,8.972168,93.65295,-4.202271,-118.2623,14.4,-6.05,0.30000000000000004,1
211080,-0.18261719999999998,0.6274413999999999,0.2744141,6.408691,-14.03809,-53.95508,94.76807,-0.368042,-121.8768,19.10833,-2.825,0.9333332999999999,1
211300,0.11279299999999999,0.9487304999999999,-0.1000977,-3.356934,4.821777,-1.7700200000000001,96.80054,-3.548584,-120.2728,41.3,-98.11667,9.483334,1
211600,-0.005371094000000001,0.9555663999999999,0.1420898,-43.02979,-2.746582,37.41455,95.66895,-5.83374,-119.8004,20.475,-0.7416667,1.483333,1
211900,0.03466797,1.006348,-0.1494141,0.793457,2.685547,-5.432129,96.89392,-5.493164,-117.5812,16.20833,-2.9,0.2166667,1
212180,0.3911133,1.67334,0.08642578000000001,-5.7983400000000005,-2.197266,-34.05762,97.67395,-4.817505,-115.7684,43.45,-98.475,12.06667,1
212480,0.2280273,1.018555,-0.03662109,-5.126953,15.01465,22.82715,97.73987,-0.4174805,-113.335,17.325,-1.716667,0.925,1
212720,0.11865229999999999,0.9692383,-0.2070313,-3.051758,-0.5493163999999999,-11.65771,95.48218,-2.757568,-111.0663,16.75833,-6.516667,-0.9166667,1
213000,0.2182617,1.071289,0.004882813000000001,19.65332,20.69092,-3.4790039999999998,93.91663,-8.025513,-110.2478,42.98333,-98.91666,12.60833,1
213270,0.03076172,0.9897461,-0.0703125,5.371094,-3.234863,-0.5493163999999999,94.95483,-3.867188,-110.05,17.175,-2.5,-2.558333,1
213520,0.5131836,1.662598,0.17480469999999998,-19.47021,-53.52783,-28.19824,95.01526,-2.905884,-113.692,21.43333,-0.3916667,5.55,1
213820,0.020996090000000002,0.9423828,-0.07470703000000001,-7.019043,31.49414,0.9765625,97.31689,-2.334595,-110.3137,16.14167,-3.366667,-2.591667,1
214190,0.5043945,0.7441405999999999,0.2338867,26.36719,27.16064,9.094238,94.07593,-6.481934,-107.8528,44.34167,-99.05833,14.5,1
214450,0.121582,0.9443359,-0.06542969,4.333496,-27.9541,-20.93506,95.71289,-4.152832,-108.847,15.35,-0.725,-0.8,1
214730,0.03662109,0.9516602,-0.38037109999999996,3.723145,-10.49805,-3.112793,96.20728,-4.855957,-110.116,19.64167,4.558333,-3.4,1
214970,0.1381836,1.213379,-0.06152344,22.46094,-17.21191,7.080078,97.60254,0.5383300999999999,-111.3739,13.375,0.9333332999999999,0.225,1
215180,0.1567383,0.9638671999999999,-0.1132813,-1.220703,10.37598,5.67627,97.83875,-3.218994,-108.8086,16.28333,-3.166667,-2.175,1
216370,0.1958008,0.8642578,0.01660156,5.7983400000000005,25.81787,12.81738,97.67395,-1.801758,-103.0957,15.81667,-1.8666669999999999,-0.1833333,1
216600,0.09814453000000001,0.9399413999999999,-0.2246094,-7.8125,-4.821777,-15.99121,97.04224,-1.922607,-100.1678,17.46667,-4.091667,-0.9500000000000001,1
216810,0.2910156,1.043945,0.07177734,18.73779,29.05273,17.51709,95.44373,-7.772827,-98.06946,46.70833,-99.675,20.68333,1
217050,0.15039059999999999,0.9716796999999999,-0.09423828000000001,0.42724609999999996,-30.51758,-1.037598,95.9491,-2.9827879999999998,-103.4363,15.84167,-2.291667,-2.05,1
217330,0.2192383,1.577637,0.03515625,-1.342773,-15.13672,-34.60693,96.1908,-3.746338,-108.4515,48.24166,-97.45834,15.76667,1
217610,0.1494141,0.9990234,-0.07373047,-4.455566,28.93066,9.094238,96.3501,-1.73584,-105.5786,48.76667,-97.975,18.39167,1
217900,0.144043,0.9321288999999999,-0.1611328,-1.037598,5.92041,-9.58252,94.94934,-1.422729,-103.7054,19.525,-7.375,1.983333,1
218140,0.08349609,1.072754,0.01757813,12.45117,3.173828,-19.65332,94.03198,-8.014526,-104.5349,45.65,-99.00833,16.84167,1
218420,0.1035156,0.9169921999999999,-0.12255859999999999,-10.55908,7.385254,10.0708,93.31238,-4.75708,-104.1394,46.8,-98.51667,17.06667,1
218730,0.1113281,0.7470703,0.3671875,-12.69531,49.25537,-112.1826,94.44397,-0.4779053,-105.5786,19.88333,-1.966667,-0.7666666999999999,1
218970,0.10888669999999999,0.9619141,-0.1015625,-1.464844,12.08496,0.9765625,96.55334,-1.664429,-104.024,14.75,-2.375,-2.633333,1
219280,0.2036133,0.7333984,0.21728519999999998,-66.16211,-49.1333,75.43945,94.23523,-5.015259,-104.0955,19.04167,-0.8166667,2.858333,1
219510,-0.02050781,0.8256836,0.1079102,6.835938,-24.84131,-32.59277,95.41077,-5.531616,-103.5956,16.20833,-2.083333,1.758333,1
219730,0.05419922,0.9750977,-0.1464844,-2.380371,7.93457,-5.554199,94.63623,-5.460205,-105.1447,46.81667,-99.25833,18.575,1
219970,0.11669919999999999,0.9726562999999999,0.10498049999999999,7.873535,-30.82275,3.112793,96.07544,0.9448242,-105.9192,15.68333,-0.1,0.0,1
220220,0.08447266,0.9062500000000001,-0.1523438,-19.59229,5.859375,-9.70459,96.00403,-2.098389,-101.1896,51.06667,-98.125,21.225,1
220450,0.06689453000000001,1.647461,-0.2573242,28.25928,-4.150391,38.39111,96.31714,-2.098389,-100.7941,14.875,3.641667,3.425,1
220730,0.06884766,1.063965,0.02734375,4.150391,-0.8544921999999999,-22.03369,94.50989,-7.723389,-99.45923,15.925,-0.2916667,1.191667,1
220950,0.05175781,0.9428711,-0.041015630000000004,-5.065918,-1.281738,5.737305,95.41626,-3.416748,-101.1292,16.55833,-2.383333,-0.9833333999999999,1
221160,0.6069336,1.222656,0.2148438,-14.83154,-23.31543,-61.52344,95.47668,-1.40625,-104.9249,52.00834,-97.19167,19.16667,1
221400,0.2504883,0.7558594,0.052734380000000004,9.277344,18.9209,19.104,97.32239,-0.7470703,-105.4742,15.96667,-2.141667,-0.6916667,1
221650,0.1791992,1.083984,-0.25439449999999997,-2.258301,9.82666,1.586914,96.03149,-1.279907,-102.5848,28.44167,1.133333,-5.783333,1
221950,-0.1074219,0.8686522999999999,0.0546875,9.460449,-22.64404,-37.78076,94.97681,-5.9545900000000005,-103.5352,48.1,-99.26667,19.68333,1
222260,0.06494141,0.9750977,-0.1464844,-8.483887,2.075195,8.911133,94.30115,-4.345093,-106.0291,47.775,-99.09167,17.88333,1
222520,-0.006347656,0.6020508,0.2963867,0.5493163999999999,6.103516,-65.61279,94.88342,0.04943848,-107.9736,21.525,-2.383333,2.408333,1
222770,0.1030273,0.9062500000000001,-0.12255859999999999,-17.7002,6.652832,3.112793,97.53113,-2.653198,-104.5844,49.89167,-98.89167,21.35,1
223080,0.1000977,0.8554687999999999,0.152832,-62.56104,-43.02979,50.84229,93.58704,-5.169067,-103.266,16.09167,1.8,1.25,1
223380,0.09130859,1.001953,-0.1171875,12.87842,-2.502441,-9.033203,93.71887,-3.647461,-103.8098,49.45833,-98.89167,19.71667,1
223720,0.04736328,1.025391,-0.38867189999999996,8.789063,-32.77588,-3.173828,94.41101,-4.537354,-105.4468,15.84167,7.25,-4.841667,1
223970,0.17871089999999998,0.7802734,0.09326172,12.75635,36.62109,23.98682,95.35034,-0.5987549,-104.7162,51.23333,-98.29166,21.30833,1
224200,0.1000977,0.8994141,-0.1572266,-14.95361,5.615234,-4.882813,95.50964,-3.164063,-100.5249,18.125,-2.966667,0.7083332999999999,1
224450,0.41943359999999996,0.6772461,0.24414059999999999,29.29688,28.9917,6.713867,92.91138,-7.113647,-100.1239,47.76667,-99.96667,21.06667,1
224680,0.16699219999999998,0.8823242,-0.0234375,7.69043,-24.4751,-19.40918,94.62524,-4.564819,-99.45923,15.48333,-1.475,-0.2166667,1
224970,0.08105469,0.965332,-0.1381836,-5.737305,20.20264,12.87842,95.37231,-4.625244,-98.69568,16.325,-6.833333,2.383333,1
225190,-0.1801758,1.337402,-0.2124023,26.00098,12.146,-0.42724609999999996,98.06946,1.499634,-100.7666,52.75834,-98.48333,25.33333,1
225470,0.07763672,0.9785155999999999,-0.23291019999999998,-13.85498,-6.04248,-13.5498,98.0365,-3.164063,-95.02075,52.15,-99.05833,26.86667,1
225760,0.0859375,1.492676,0.07910156,-17.45605,-10.98633,42.23633,97.00378,-3.927612,-94.19128,13.81667,3.683333,1.625,1
226010,0.1674805,0.8549804999999999,-0.020996090000000002,-3.051758,-10.0708,-22.64404,95.91614,-4.235229,-93.31238,15.11667,-1.35,-1.3,1
226280,0.03564453,0.9003905999999999,-0.37988279999999996,6.164551,-20.1416,-0.4882813,95.71838,-4.921875,-93.32886,50.275,-100.0167,26.21667,1
226580,-0.26269529999999996,1.162109,-0.08398438,13.91602,-21.1792,8.483887,96.82251,1.329346,-97.99805,14.09167,0.9583332999999999,-2.158333,1
226820,0.09912109000000001,0.8637695,-0.15625,-28.86963,18.18848,-18.18848,94.92737,-1.757813,-97.0752,17.65833,-3.891667,0.8833333,1
227100,0.3125,1.030273,0.11474609999999999,20.32471,34.85107,-6.774902,93.08716,-7.668457,-96.65222,48.875,-100.0917,22.825,1
227380,0.09228516,0.8520508,-0.08154297,-8.789063,-1.953125,3.173828,93.30139,-4.306641,-96.70166,50.89167,-99.375,23.45833,1
227690,-0.3271484,0.9013671999999999,0.1577148,48.40088,-39.85596,-16.23535,95.90515,2.817993,-102.063,54.74166,-97.19167,22.475,1
228050,0.125,0.9213867,-0.1801758,-19.104,6.347656,-6.04248,96.52588,-2.026978,-97.98706,16.325,-1.633333,-0.7000000000000001,1
228250,0.24560549999999998,1.4394529999999999,-0.36474609999999996,37.96387,-0.24414059999999999,35.70557,96.65222,-2.389526,-96.63025,12.025,4.7,8.425,1
228460,-0.1264648,1.012695,0.05566406,-0.42724609999999996,-4.272461,-35.03418,96.2677,-7.091675,-97.00378,14.98333,0.125,-1.1,1
228680,0.11474609999999999,0.9082030999999999,-0.07080078000000001,2.319336,4.089355,2.807617,95.21301,-4.581299,-104.2163,50.40833,-100.05,21.14167,1
228920,-0.1181641,0.5053711,0.2114258,36.74316,-13.12256,-55.48096,95.69092,1.104126,-107.8802,16.85833,-1.041667,0.48333329999999997,1
229190,0.1552734,0.9379883,-0.09082031,11.04736,51.45264,9.399414,99.17358,-1.8951419999999999,-104.2328,15.58333,-2.725,-2.083333,1
229410,0.2080078,0.8950195,-0.1533203,-8.789063,-13.85498,-10.00977,97.45422,-1.713867,-103.0627,18.51667,-7.75,2.491667,1
229630,0.2241211,1.265137,-0.13525389999999998,15.44189,1.403809,-17.57813,97.02576,-9.316406,-103.1891,15.01667,-0.17500000000000002,-0.3083333,1
229910,0.1298828,0.9609375,-0.14257809999999999,-16.29639,12.26807,11.23047,95.58655,-4.828491,-105.5676,49.51667,-99.81667,20.15,1
230180,0.11621089999999999,0.7841796999999999,0.3427734,-2.624512,-8.666992,-64.14795,95.46021,-1.543579,-107.2485,20.51667,-1.808333,1.7,1
230420,0.0859375,0.9350586,-0.1577148,-10.98633,26.18408,-4.02832,98.72314,-2.427979,-103.1671,52.7,-98.45834,23.93333,1
230720,0.1098633,0.730957,0.24511719999999998,-70.43457,-17.8833,52.12402,95.57556,-5.690918,-102.7881,48.81667,-99.39167,21.88333,1
230990,-0.03076172,0.8706054999999999,0.006835938000000001,7.324219,-38.0249,-32.40967,96.62476,-5.306396,-103.5791,16.26667,-1.608333,1.116667,1
231240,0.07958984,0.9443359,-0.39550779999999996,-1.281738,-9.887695,-13.73291,96.13586,-5.278931,-105.8313,48.65,-97.7,20.98333,1
231540,0.1953125,0.8515625,0.03369141,2.990723,43.94531,13.73291,98.85498,-0.8898925999999999,-106.1115,15.58333,-1.683333,0.01666667,1
232830,0.2597656,0.7939453,0.07666016,6.225586,30.88379,21.05713,97.61353,-0.3295898,-111.8298,16.18333,-1.658333,-1.125,1
233070,0.15869139999999998,1.105469,-0.2197266,-9.643555,1.953125,0.3662109,95.72937,-0.5767822,-108.5944,27.7,0.1,-6.991667,1
233380,-0.07128906,0.8144530999999999,0.08837891,12.75635,-26.7334,-34.24072,95.86121,-5.614014,-110.1489,16.20833,-1.391667,2.1,1
233610,0.05322266,0.9287109,-0.1616211,-10.31494,2.990723,-0.1831055,96.46545,-4.32312,-111.3409,16.83333,-1.258333,-0.6583333,1
233840,-0.15917969999999998,0.7353516,0.1318359,54.07715,-39.36768,-12.02393,96.37207,2.103882,-112.0935,51.21667,-96.55833,17.26667,1
234070,0.06152344,1.01123,-0.08789063,0.1831055,20.62988,6.408691,97.86621,-1.1920169999999999,-108.9569,16.125,-2.033333,-3.041667,1
234320,0.10058589999999999,1.027344,-0.3583984,2.807617,14.4043,8.605957,94.72961,-1.516113,-107.1277,50.89167,-97.81667,18.25,1
234550,-0.05029297,1.032715,0.05615234,10.55908,11.65771,-32.34863,95.22949,-7.580566,-105.5402,15.55833,0.3083333,-0.3916667,1
234830,0.1362305,0.9282227,-0.07421875,-1.403809,-11.41357,5.859375,95.48218,-3.614502,-109.7479,15.73333,-2.066667,-2.15,1
235050,0.06396484,0.9365234,-0.4550781,20.62988,-19.77539,-8.544922,95.01526,-4.389038,-111.1597,12.48333,7.333333,0.3333333,1
235260,0.2436523,0.8652344,-0.03466797,3.356934,46.875,10.74219,98.30017,-2.087402,-111.8134,50.01667,-99.93333,21.08333,1
235510,0.08984375,0.8994141,-0.19384769999999998,-10.92529,10.37598,-11.59668,98.00903,-2.614746,-107.2321,16.15,-5.641667,-2.65,1
235750,0.2758789,1.077148,0.006835938000000001,11.23047,19.59229,15.19775,95.72388,-8.525391,-105.3094,13.64167,1.308333,0.1333333,1
236050,0.07373047,0.9707030999999999,-0.1713867,-12.26807,1.342773,7.324219,96.31165,-4.471436,-108.8196,48.25834,-100.8917,19.775,1
236360,-0.10498049999999999,1.030762,0.17041019999999998,44.86084,-19.83643,-10.43701,96.6687,1.323853,-108.6493,53.25,-98.58334,20.41667,1
236630,0.06884766,0.9780272999999999,-0.105957,-0.7324219,21.30127,2.624512,97.3938,-1.499634,-105.6665,16.05833,-2.941667,-1.433333,1
236880,0.02783203,1.045898,-0.30224609999999996,-11.41357,0.24414059999999999,16.8457,96.70166,-1.032715,-102.7771,52.13334,-99.66666,22.11667,1
237180,0.05517578,0.9150391,-0.01318359,4.272461,-75.74463,-24.35303,96.41052,-3.658447,-107.655,16.025,-0.925,-0.44166669999999997,1
237520,0.02539063,1.019043,-0.31835939999999996,-7.202148,-24.04785,5.981445,96.64124,-4.44397,-114.3787,23.775,2.708333,-4.733333,1
237730,-0.05810547,1.012207,0.06738281,17.57813,-22.46094,1.708984,96.1084,1.746826,-116.5594,15.26667,0.25,1.85,1
237950,0.105957,0.9350586,-0.13134769999999998,-6.774902,16.29639,-6.530762,97.41577,-1.82373,-109.6545,51.45,-100.1,21.425,1
238180,-0.001464844,0.9335937999999999,-0.38818359999999996,-1.525879,19.59229,-1.6479489999999999,96.28967,-0.1593018,-106.496,13.775,3.266667,-9.6,1
238450,0.30224609999999996,1.07666,0.08886719,18.18848,8.544922,11.71875,95.32837,-7.157593,-108.3197,14.56667,1.391667,0.36666669999999996,1
238660,0.08935547,0.921875,-0.14306639999999998,-14.22119,1.159668,6.286621,95.09766,-3.273926,-113.2965,48.325,-100.0917,17.175,1
238910,-0.0009765625,1.567383,-0.060546880000000004,-5.249023,-35.27832,-12.3291,95.38879,-3.482666,-115.1312,16.10833,3.391667,5.725,1
239160,0.3149414,0.9428711,0.02587891,3.2958979999999998,14.95361,26.85547,96.89392,-0.7800292999999999,-116.51,16.11667,-0.5083333,-0.5833332999999999,1
239370,0.1689453,0.8920897999999999,-0.17041019999999998,3.967285,20.20264,-9.521484,96.11389,-1.884155,-109.5886,51.725,-99.30833,19.8,1
239610,0.5546875,0.5610352,0.4609375,24.4751,-25.32959,57.49512,94.27368,-7.377319,-110.5829,20.475,-0.48333329999999997,0.7333333,1
239890,0.1757813,0.9213867,-0.13476559999999999,-1.8310549999999999,-13.06152,6.713867,97.41577,-3.460693,-115.4004,47.8,-100.8333,18.16667,1
240170,0.4414063,0.8701171999999999,0.4228516,-33.08105,37.78076,-92.65137,95.68542,-0.6097412,-115.9772,51.30833,-98.81667,17.03333,1
240460,0.1845703,0.8388671999999999,0.06201172,-1.525879,32.77588,12.69531,96.89941,-0.6481933999999999,-112.9724,15.73333,-2.066667,-0.17500000000000002,1
240710,0.12402339999999999,1.013672,-0.2602539,-2.197266,4.272461,-6.774902,95.72388,-0.7415771,-109.2151,52.525,-99.06667,20.28333,1
240990,-0.1552734,0.8627929999999999,0.04833984,4.882813,-38.51318,-31.00586,96.55334,-5.410767,-109.9017,48.925,-100.7917,19.88333,1
241300,0.1308594,0.9912109,-0.08496094,-0.24414059999999999,6.652832,-0.6713867,95.96008,-4.207764,-116.1969,47.76667,-100.6917,17.71667,1
241610,0.15869139999999998,1.104492,-0.06835938,2.624512,7.568359,20.62988,97.04773,1.389771,-117.6965,15.54167,-0.8416665999999999,-0.1416667,1
241970,0.1708984,0.9516602,-0.171875,-6.835938,-0.8544921999999999,-12.26807,96.39954,-1.917114,-115.6476,16.575,-6.25,-0.3083333,1
242180,0.2124023,1.04541,0.0009765625,27.46582,28.07617,-11.16943,95.14709,-7.910156,-117.1582,44.89167,-101.35,16.775,1
242420,0.06640625,0.9418945,-0.1020508,14.70947,5.67627,-1.342773,96.51489,-3.949585,-118.8281,15.54167,-2.058333,-1.3333329999999999,1
242690,0.07421875,1.023438,-0.1630859,-3.234863,-1.159668,2.075195,96.49292,-5.641479,-117.6361,24.94167,-2.633333,1.258333,1
242910,-0.03808594,0.8164062999999999,0.2163086,26.61133,-9.70459,-19.89746,95.58655,0.0604248,-117.4658,19.36667,-1.125,2.258333,1
243120,0.11621089999999999,0.9213867,-0.1401367,-3.662109,19.34814,-1.7700200000000001,98.5199,-3.224487,-109.671,50.90833,-100.3583,23.08333,1
243400,-0.45898439999999996,1.308594,0.017089840000000002,-111.145,33.20313,29.05273,96.14136,-4.647217,-107.3859,47.99166,-101.1167,20.69167,1
243670,-0.02587891,0.8569336,0.08935547,-0.42724609999999996,-16.72363,-29.41895,95.78979,-6.811523,-108.2373,16.91667,-1.266667,1.266667,1
243910,0.05908203,1.024902,-0.15917969999999998,-3.4790039999999998,5.981445,7.202148,94.6582,-5.608521,-108.8745,48.33333,-101.0583,20.59167,1
244220,0.2583008,1.089844,-0.09228516,18.12744,25.87891,11.65771,95.86121,-0.01098633,-107.8967,15.60833,0.0,1.9916669999999999,1
244550,0.07714844,0.8818359,-0.1557617,-10.43701,10.74219,-12.45117,96.44348,-2.999268,-99.28894,53.63334,-99.60833,28.1,1
244820,0.3359375,0.9223633,0.10693359999999999,9.58252,34.60693,35.46143,95.9436,-8.442993,-97.1521,48.6,-102.15,29.775,1
245090,0.1928711,0.8920897999999999,-0.06542969,4.211426,-38.87939,-4.943848,96.56982,-4.207764,-99.84375,15.56667,-2.508333,-0.6833332999999999,1
245340,0.09619141,1.272461,-0.3139648,8.422852,-33.20313,-12.87842,97.17407,-4.482422,-102.5024,52.43333,-99.84167,25.675,1
245650,0.1396484,0.9545897999999999,-0.07666016,2.441406,21.72852,11.2915,97.84973,-1.422729,-100.7446,15.8,-3.133333,-1.158333,1
245980,0.06835938,0.9765625,-0.3632813,10.00977,1.7700200000000001,13.91602,96.22375,-1.411743,-98.26721,8.758333,7.183333,-4.408333,1
246290,0.004394531,0.8437500000000001,0.05224609,-0.12207029999999999,-35.03418,-29.29688,95.5481,-4.647217,-100.415,15.59167,-1.533333,-0.5666667,1
246520,0.1264648,0.9301758,-0.3774414,3.78418,-22.03369,-5.67627,95.10864,-4.581299,-104.0076,50.40833,-100.8333,24.65833,1
246770,0.1621094,1.19043,-0.06835938,21.05713,-6.103516,11.35254,96.51489,1.746826,-105.1392,13.95833,0.5333333,0.9416667,1
247010,0.08105469,0.8535155999999999,-0.1323242,-17.45605,2.319336,-8.850098,96.15234,-2.521362,-100.1074,53.21667,-99.675,27.43333,1
247250,-0.2763672,1.756836,0.04248047,-47.85156,-19.59229,62.25586,96.86646,-4.026489,-98.93188,16.675,2.766667,3.016667,1
247520,-0.08642578000000001,0.8007812999999999,0.06933594,-6.713867,-6.835938,-39.91699,94.77905,-8.085938,-97.1521,15.09167,-1.45,2.691667,1
247740,0.03955078,0.9121094,-0.1230469,-16.54053,8.666992,5.249023,95.56458,-5.097656,-96.56433,17.0,-2.525,1.291667,1
247960,-0.2275391,0.7084961,0.15917969999999998,34.97314,-21.42334,-21.48438,96.65771,0.44494629999999996,-93.82874,16.925,-0.1916667,0.6166667,1
249230,0.08935547,0.8686522999999999,0.1054688,24.23096,-2.868652,-21.24023,96.95984,-0.401001,-93.35632,55.68333,-98.8,33.625,1
249480,0.11669919999999999,0.9482421999999999,-0.08642578000000001,-3.356934,28.13721,6.286621,99.27246,-3.312378,-88.19824,15.94167,-3.158333,-2.533333,1
249760,0.1606445,1.144531,-0.44238279999999996,24.90234,14.22119,11.96289,98.15735,-2.70813,-84.49036,52.65,-100.1083,37.875,1
250040,0.01416016,0.8769530999999999,0.03515625,-7.446289,-43.70117,-23.07129,96.80054,-5.883179,-84.27612,51.76667,-100.675,38.06667,1
250330,0.09521484000000001,0.9824219,-0.08496094,-12.57324,12.69531,11.90186,96.28967,-5.097656,-87.83569,17.025,-4.891667,1.5833329999999999,1
250580,-0.24072269999999998,0.9995117,0.20214839999999998,48.58398,11.23047,-18.49365,96.58081,-0.18676759999999998,-82.71606,56.30833,-97.83334,39.325,1
250850,0.022460940000000002,0.9077147999999999,-0.1694336,-10.49805,4.394531,-7.93457,97.09717,-3.092651,-79.38171,54.18333,-98.93333,41.28333,1
