Timestamp,AccX,AccY,AccZ,GyroX,GyroY,GyroZ,AngX,AngY,AngZ,MagX,MagY,MagZ,Tag
0,0.03173828,0.9062500000000001,-0.4301758,2.685547,-0.6713867,-3.2958979999999998,115.0928,1.768799,90.91187,15.30833,-7.291667,0.17500000000000002,1
430,0.009277344,0.9091796999999999,-0.4228516,-1.8310549999999999,-2.807617,-1.586914,115.1697,2.2796629999999998,91.09314,15.425,-7.266667,0.1833333,1
690,0.001953125,0.9077147999999999,-0.4228516,-3.417969,-1.586914,-0.793457,114.9445,2.449951,90.87891,15.51667,-7.266667,-0.65,1
900,0.01464844,0.9155272999999999,-0.3984375,-2.685547,4.089355,1.281738,113.6426,2.054443,91.10962,15.575,-6.583333,-0.675,1
1230,0.03369141,0.9165038999999999,-0.37255859999999996,-1.403809,-0.9155272999999999,0.06103516,112.6923,1.323853,91.26892,15.866670000000001,-6.383333,-0.125,1
1500,0.02685547,0.9228516,-0.37207029999999996,-0.8544921999999999,-0.4882813,-0.42724609999999996,112.4396,1.241455,91.12061,15.79167,-6.366667,0.1166667,1
1750,0.03125,0.9272461,-0.3823242,0.0,-1.953125,-0.5493163999999999,112.5549,1.213989,91.06567,15.84167,-6.458333,-0.03333333,1
2010,0.02832031,0.9272461,-0.3740234,-1.7700200000000001,-0.4882813,-1.342773,112.3737,1.384277,90.81848,15.90833,-6.341667,-0.4666667,1
2310,0.02539063,0.9375,-0.35693359999999996,-2.380371,-1.464844,0.24414059999999999,111.5497,1.224976,90.76904,15.775,-5.933333,-0.5416667,1
2560,0.03417969,0.9228516,-0.34082029999999996,-5.126953,-0.24414059999999999,-1.342773,110.7147,1.19751,90.58228,15.98333,-5.783333,-0.1666667,1
2880,0.02587891,0.9238280999999999,-0.3369141,1.7700200000000001,-4.516602,0.24414059999999999,110.495,1.219482,90.34607,15.88333,-5.791667,0.325,1
3130,0.03076172,0.953125,-0.3632813,2.01416,2.380371,-1.159668,110.9949,1.1920169999999999,90.07141,15.69167,-6.166667,0.2083333,1
3470,0.03125,0.9311522999999999,-0.3110352,-2.685547,-1.708984,-0.12207029999999999,110.3522,1.087646,89.90662,16.05,-5.666667,0.2833333,1
3730,0.03515625,0.9389647999999999,-0.3427734,-0.06103516,-0.24414059999999999,-0.9765625,110.7367,1.126099,89.71985,16.04167,-5.891667,-0.025,1
4041,0.03613281,0.9345703,-0.3378906,-0.3051758,-0.06103516,-1.098633,110.5609,1.109619,89.71985,15.96667,-5.758333,0.03333333,1
4340,0.03613281,0.9345703,-0.3378906,-0.3051758,-0.06103516,-1.098633,110.5609,1.109619,89.71985,15.98333,-33.61666,12.03333,1
4650,0.03125,0.9360352,-0.3500977,1.342773,-0.4882813,-0.9765625,110.7806,1.18103,89.76379,15.991670000000001,-5.966667,-0.04166667,1
4990,0.03417969,0.9375,-0.34130859999999996,2.380371,-0.12207029999999999,-1.037598,111.0828,1.230469,89.68689,16.08333,-6.058333,0.4666667,1
5190,0.03662109,0.9335937999999999,-0.3632813,-1.708984,-0.9765625,-0.6103516,111.4233,1.312866,89.56055,16.2,-5.725,-0.8333332999999999,1
5500,0.02294922,0.9648437999999999,-0.3427734,-7.080078,1.403809,-2.502441,110.7587,1.345825,89.40674,15.90833,-6.375,-0.35833329999999997,1
5740,0.02294922,0.9648437999999999,-0.3427734,-7.080078,1.403809,-2.502441,110.7587,1.345825,89.40674,15.69167,-5.591667,-0.1,1
5950,0.01904297,0.9492187999999999,-0.32519529999999996,1.098633,-1.342773,-0.1831055,109.8303,1.516113,89.31335,16.03333,-5.5,0.1166667,1
6190,0.028808590000000002,0.9414062999999999,-0.32519529999999996,1.159668,-0.3051758,-0.3051758,109.8962,1.488647,89.14856,16.125,-5.65,0.2083333,1
6410,0.03076172,0.9443359,-0.3388672,0.12207029999999999,-0.5493163999999999,-0.4882813,110.105,1.422729,89.08264,16.1,-5.616667,0.0,1
6750,0.02978516,0.9438477,-0.3305664,-0.24414059999999999,-0.42724609999999996,-0.9155272999999999,109.9677,1.417236,89.01123,16.125,-5.616667,-0.01666667,1
7050,0.03125,0.9458008,-0.33300779999999996,0.1831055,-0.7324219,-0.7324219,109.8248,1.428223,88.92883,16.075,-5.6,0.025,1
7350,0.03076172,0.9418945,-0.328125,0.793457,-0.6103516,-0.9155272999999999,109.9017,1.417236,88.85193,16.09167,-5.733333,0.1916667,1
7620,0.02783203,0.9433594,-0.3364258,0.6103516,-0.6713867,-0.6103516,110.1544,1.433716,88.75854,16.34167,-33.70833,11.78333,1
7890,0.02929688,0.9414062999999999,-0.33349609999999996,0.5493163999999999,-0.3662109,-0.8544921999999999,110.2478,1.433716,88.69263,16.075,-5.758333,0.05833333,1
8170,0.028808590000000002,0.9433594,-0.3422852,0.6713867,-0.4882813,-0.8544921999999999,110.3961,1.433716,88.61572,16.04167,-5.75,0.1666667,1
8430,0.02783203,0.9394530999999999,-0.3427734,0.3051758,-0.5493163999999999,-0.793457,110.528,1.4556879999999999,88.5498,16.39167,-33.63334,11.75,1
8720,0.02832031,0.9394530999999999,-0.34033199999999997,0.06103516,-0.3051758,-0.7324219,110.517,1.450195,88.4729,16.34167,-33.50834,11.85,1
9030,0.028808590000000002,0.9423828,-0.34082029999999996,0.4882813,-0.42724609999999996,-0.793457,110.5115,1.444702,88.40698,16.35,-33.66667,11.96667,1
9330,0.028808590000000002,0.9375,-0.3422852,0.06103516,-0.6713867,-0.793457,110.5334,1.444702,88.35205,16.01667,-5.875,0.025,1
9630,0.030273440000000002,0.9394530999999999,-0.3276367,-2.502441,-0.6713867,-0.3051758,110.116,1.356812,88.28613,16.28333,-33.74166,11.675,1
9900,0.03613281,0.9414062999999999,-0.33300779999999996,0.6713867,-0.9155272999999999,-1.098633,109.9841,1.323853,88.15979,16.08333,-5.741667,0.125,1
10150,0.030273440000000002,0.9448242,-0.3388672,2.258301,-1.6479489999999999,-0.6713867,110.2588,1.3623049999999999,88.15979,16.19167,-33.70833,11.70833,1
10410,0.04833984,0.9418945,-0.3740234,-4.882813,-3.78418,-1.89209,110.484,1.604004,87.5116,16.275,-5.741667,-1.791667,1
10620,0.08007813,1.055176,-0.3452148,-34.42383,0.5493163999999999,-6.835938,104.1669,3.218994,87.33032,17.88333,-35.71667,6.966667,1
10900,0.02832031,1.244629,-0.1015625,-31.25,-13.3667,-22.58301,94.19678,6.317139,86.55029,13.15,2.8,-9.358334,1
12140,0.04003906,0.9550780999999999,-0.31787109999999996,4.760742,0.3051758,1.586914,103.5736,0.3186035,88.08838,16.525,-5.583333,-0.1333333,1
12380,0.01074219,0.9711913999999999,-0.2768555,-9.216309,4.02832,-4.272461,103.1781,1.087646,88.34106,16.66667,-4.991667,-0.225,1
12650,0.01416016,0.9667969,-0.2578125,-3.967285,-3.173828,-3.356934,102.2223,1.977539,88.18726,16.61667,-35.76667,9.066667,1
12930,0.009277344,0.9672852,-0.2431641,-1.403809,-0.3051758,-1.342773,101.9971,2.27417,88.03894,16.46667,-4.175,-0.2166667,1
13170,0.015136720000000001,0.9702147999999999,-0.24560549999999998,-0.5493163999999999,-0.7324219,-0.6713867,101.9312,2.2796629999999998,87.95105,16.675,-36.10833,8.375,1
13460,0.011230470000000001,0.9648437999999999,-0.2387695,0.7324219,-0.6713867,-0.4882813,102.1729,2.197266,87.82471,16.46667,-4.016667,0.2083333,1
13800,0.01904297,0.9648437999999999,-0.2470703,2.563477,-0.4882813,0.06103516,103.0682,1.950073,87.76978,16.45833,-4.383333,0.35833329999999997,1
14070,0.02734375,0.9667969,-0.27050779999999996,2.13623,0.793457,0.1831055,103.9911,1.609497,87.80823,16.10833,-35.53333,9.608334,1
14360,0.02929688,0.9594727,-0.2670898,1.098633,-0.9155272999999999,0.42724609999999996,104.6283,1.263428,87.95105,15.85,-35.5,10.325,1
14650,0.03710938,0.9580078,-0.27783199999999997,4.089355,-1.464844,-1.037598,105.1611,1.257935,87.70386,16.29167,-4.816667,0.65,1
14940,0.03759766,0.9550780999999999,-0.2978516,1.464844,1.8310549999999999,-1.159668,106.2817,1.312866,87.62146,16.225,-5.091667,0.4,1
15170,0.04199219,0.9580078,-0.3291016,1.403809,-1.89209,-0.24414059999999999,107.2485,1.175537,87.75879,15.90833,-34.275,11.675,1
15420,0.03173828,0.9541016,-0.3032227,-4.577637,-1.281738,-1.403809,106.7212,1.164551,87.80273,16.31667,-4.858333,-0.8166667,1
15650,0.03515625,0.9589844,-0.2744141,-6.591797,-1.708984,-1.098633,105.639,1.3623049999999999,87.5061,16.4,-4.733333,-0.075,1
15870,0.02441406,0.9643554999999999,-0.2749023,-0.42724609999999996,-1.708984,-0.6103516,105.4193,1.4556879999999999,87.47314,16.63333,-4.633333,-0.4583333,1
16200,0.02392578,0.9565429999999999,-0.2475586,1.586914,0.793457,0.4882813,104.8975,1.461182,87.32483,15.85,-35.775,9.65,1
16440,0.03369141,0.9707030999999999,-0.269043,0.4882813,-1.7700200000000001,-0.6103516,104.9359,1.230469,87.25342,16.425,-4.433333,0.2166667,1
16660,0.02539063,0.965332,-0.25,1.7700200000000001,-0.6103516,0.0,105.1666,1.131592,87.24243,16.425,-4.633333,0.25,1
16880,0.04296875,0.9536133,-0.2666016,0.9765625,-1.342773,-0.4882813,105.6555,1.137085,86.68213,15.93333,-35.625,9.591666,1
17210,-0.01074219,0.9785155999999999,-0.27832029999999996,-1.281738,-1.7700200000000001,-0.06103516,105.7489,1.170044,86.65466,17.13333,-4.858333,-0.6583333,1
17520,0.04003906,0.9409179999999999,-0.2509766,3.540039,-1.037598,-0.6713867,105.3314,1.203003,86.84143,16.31667,-4.65,0.2916667,1
17820,0.03466797,0.9580078,-0.2646484,0.3662109,0.4882813,-1.098633,105.9686,1.203003,86.7865,15.7,-35.28333,10.05,1
18080,0.06884766,0.9555663999999999,-0.25488279999999996,-0.3662109,-1.8310549999999999,-1.098633,105.9027,1.164551,86.80298,15.85,-35.50834,10.09167,1
18380,0.03759766,0.9692383,-0.2768555,0.3662109,-0.8544921999999999,-1.098633,105.9082,1.153564,86.69861,16.4,-4.483333,0.125,1
18640,0.03564453,0.9619141,-0.2753906,-0.3051758,-0.5493163999999999,-0.5493163999999999,106.0181,1.120605,86.6217,16.36667,-4.525,-0.1,1
18930,0.03515625,0.9609375,-0.2651367,0.6103516,-0.7324219,-0.6713867,105.9412,1.060181,86.56128,16.45,-4.65,0.09166667,1
19280,0.03466797,0.9570312999999999,-0.25439449999999997,0.0,-0.42724609999999996,-0.6713867,105.8533,1.021729,86.44592,16.38333,-4.666667,0.075,1
19690,0.0390625,0.9648437999999999,-0.2758789,-0.4882813,-0.3662109,-0.793457,106.0181,0.9667969,86.36902,16.39167,-4.558333,-0.03333333,1
19890,0.03808594,0.9628905999999999,-0.25439449999999997,-0.12207029999999999,-0.42724609999999996,-1.098633,105.9192,0.9777832,86.25916,15.575,-35.98333,9.9,1
20140,0.03369141,0.9614258,-0.2792969,1.525879,-1.098633,-0.42724609999999996,106.2103,0.9997558999999999,86.16028,16.46667,-4.858333,-0.075,1
20400,0.03857422,0.9589844,-0.2568359,-0.9155272999999999,-0.6103516,-1.159668,106.1554,0.9997558999999999,86.02844,16.41667,-4.675,0.06666667,1
20610,0.03515625,0.965332,-0.2792969,0.42724609999999996,-0.5493163999999999,-0.6713867,106.2323,1.021729,85.95703,16.40833,-4.566667,0.025,1
20840,0.03417969,0.9648437999999999,-0.2724609,0.42724609999999996,-0.6103516,-0.7324219,106.3257,1.027222,85.86365,15.79167,-35.55,9.983334,1
21110,0.03564453,0.9609375,-0.2744141,0.42724609999999996,-0.6103516,-0.793457,106.4136,1.021729,85.77026,15.66667,-35.525,9.866667,1
21380,0.03466797,0.9609375,-0.27783199999999997,0.7324219,-0.6713867,-0.8544921999999999,106.4465,1.032715,85.71533,16.41667,-4.741667,0.06666667,1
21630,0.03417969,0.9628905999999999,-0.2768555,0.3051758,-0.6103516,-0.9155272999999999,106.5125,1.049194,85.59448,15.80833,-35.55833,10.2,1
21920,0.03662109,0.9643554999999999,-0.2871094,0.3051758,-0.7324219,-0.793457,106.5234,1.032715,85.51208,16.68333,-4.966667,-0.5166666999999999,1
22270,0.01660156,0.965332,-0.2148438,-2.746582,1.464844,0.3662109,105.282,1.439209,85.45166,16.575,-4.325,0.5666667,1
22530,0.03515625,0.949707,-0.2314453,0.3051758,0.3662109,-1.525879,105.3259,1.235962,85.33081,15.78333,-35.9,9.108334,1
22820,0.04736328,0.9750977,-0.2958984,2.990723,0.9155272999999999,0.1831055,106.6553,0.8953857,85.6604,15.425,-35.525,10.30833,1
23110,0.03759766,0.9565429999999999,-0.2558594,4.089355,-4.394531,-0.7324219,106.5948,0.6756592,85.65491,16.60833,-5.325,0.3416667,1
23400,0.04980469,0.9648437999999999,-0.2905273,-0.5493163999999999,-2.868652,-1.525879,106.8805,0.8514404,85.21545,16.35833,-4.666667,-0.008333334000000001,1
23700,0.03808594,0.9580078,-0.2768555,-0.42724609999999996,-0.5493163999999999,-1.037598,106.6388,0.8239746,85.23193,16.425,-4.758333,-0.04166667,1
24000,0.03710938,0.9589844,-0.2695313,0.7324219,-0.8544921999999999,-1.037598,106.5729,0.8734130999999999,85.11108,16.50833,-4.866667,0.1916667,1
24250,0.03369141,0.9565429999999999,-0.27001949999999997,-0.06103516,-0.5493163999999999,-1.220703,106.6663,0.9722900000000001,84.99573,16.25,-4.666667,0.2083333,1
24460,0.03564453,0.9648437999999999,-0.2890625,-1.464844,-0.06103516,-1.342773,106.8036,0.9777832,85.00671,15.44167,-35.5,10.06667,1
24720,0.03710938,0.9565429999999999,-0.26318359999999996,-0.42724609999999996,-0.24414059999999999,-0.9765625,106.6937,1.021729,84.76501,15.575,-35.475,9.883333,1
24960,0.030273440000000002,0.9580078,-0.2714844,-0.24414059999999999,-0.7324219,-0.6713867,106.6827,1.032715,84.74304,16.59167,-4.925,-0.1,1
25230,0.03125,0.9545897999999999,-0.26220699999999997,-1.342773,-1.342773,-1.037598,106.496,0.9558105,84.79797,16.23333,-4.3,0.2916667,1
25450,0.04003906,0.9746094,-0.2910156,0.793457,1.098633,-1.342773,106.8311,1.18103,84.47388,16.43333,-4.775,0.06666667,1
25710,0.03417969,0.9570312999999999,-0.2607422,-0.06103516,0.24414059999999999,-0.6103516,106.7377,1.049194,84.60571,16.45,-4.95,0.04166667,1
25940,0.03613281,0.9619141,-0.2851563,0.4882813,-1.220703,-1.403809,106.9299,1.016235,84.54529,15.64167,-35.3,10.275,1
26220,0.03222656,0.9624022999999999,-0.2758789,-2.685547,-1.098633,-1.098633,106.6827,1.115112,84.34753,16.5,-4.758333,-0.47500000000000003,1
26500,0.04199219,0.9467772999999999,-0.2675781,-7.568359,2.441406,-1.7700200000000001,105.1831,1.395264,84.16626,16.50833,-3.866667,-1.416667,1
26770,0.02929688,0.9702147999999999,-0.22216799999999998,3.112793,1.342773,-0.9765625,104.1284,1.6754149999999999,84.0564,16.08333,-36.46667,8.016666,1
27030,0.01367188,0.9667969,-0.2397461,4.333496,-1.6479489999999999,0.9765625,104.7821,1.422729,84.16626,16.76667,-4.291667,0.35000000000000003,1
27280,0.04150391,0.9790038999999999,-0.2885742,0.4882813,-2.746582,-0.7324219,105.6335,1.120605,84.11133,15.75,-35.95833,9.341666,1
27580,0.03662109,0.9663086,-0.2558594,0.8544921999999999,-1.342773,-1.037598,105.8643,1.09314,84.06738,16.49167,-4.416667,0.08333334,1
27930,0.03417969,0.9672852,-0.2524414,-0.9765625,-1.525879,-0.9155272999999999,105.7764,1.109619,83.93555,16.56667,-4.475,-0.1666667,1
29180,0.03125,0.9663086,-0.24853519999999998,0.42724609999999996,-0.24414059999999999,-0.5493163999999999,105.3699,0.9613037,83.60046,16.575,-4.35,0.2583333,1
29551,0.03710938,0.9633788999999999,-0.25488279999999996,1.708984,-0.12207029999999999,-0.6103516,105.7489,1.010742,83.41919,16.48333,-4.416667,0.1416667,1
29760,0.03613281,0.9643554999999999,-0.26269529999999996,1.159668,-0.4882813,-0.6103516,105.9796,0.9777832,83.4137,16.425,-4.466667,0.06666667,1
29970,0.03759766,0.965332,-0.2670898,-0.1831055,-0.4882813,-0.6713867,106.1169,0.9118651999999999,83.38623,16.46667,-4.483333,-0.03333333,1
30260,0.03710938,0.9638671999999999,-0.26269529999999996,-1.098633,-0.42724609999999996,-0.4882813,105.9686,0.8789062999999999,83.33679,16.5,-4.408333,-0.1416667,1
30480,0.041015630000000004,0.9663086,-0.2563477,-0.42724609999999996,-0.3662109,-0.6103516,105.7874,0.8239746,83.28735,16.48333,-4.358333,-0.09166667,1
30710,0.03955078,0.9619141,-0.2568359,0.0,-0.6103516,-0.8544921999999999,105.6281,0.8129883,83.22144,16.43333,-4.291667,0.04166667,1
30980,0.04003906,0.9638671999999999,-0.2583008,0.9765625,-0.7324219,-0.793457,105.7874,0.8129883,83.12805,15.5,-36.025,9.475,1
31240,0.0390625,0.9643554999999999,-0.2592773,0.9155272999999999,-0.7324219,-0.9765625,105.9357,0.8239746,83.05664,16.45833,-4.45,0.15833329999999998,1
31510,0.04003906,0.9609375,-0.26269529999999996,1.098633,-0.7324219,-0.9155272999999999,106.1444,0.8404541,82.94678,15.44167,-35.85833,9.633333,1
31790,0.03857422,0.9648437999999999,-0.2670898,1.037598,-0.4882813,-0.8544921999999999,106.3367,0.8679199,82.87537,16.43333,-4.608333,0.1333333,1
32040,0.03955078,0.9628905999999999,-0.269043,0.7324219,-0.6713867,-0.8544921999999999,106.496,0.8789062999999999,82.7655,16.43333,-4.608333,0.05833333,1
32310,0.03857422,0.9604492,-0.2714844,0.1831055,-0.7324219,-0.8544921999999999,106.5729,0.8789062999999999,82.68311,15.43333,-35.68333,10.00833,1
32600,0.03955078,0.9604492,-0.27050779999999996,0.12207029999999999,-0.4882813,-0.8544921999999999,106.6333,0.8843994,82.59521,16.40833,-4.675,-0.008333334000000001,1
32950,0.04052734,0.9624022999999999,-0.269043,-1.037598,-0.24414059999999999,-0.5493163999999999,106.4465,0.8239746,82.5238,16.425,-4.575,-0.1083333,1
33230,0.04003906,0.9633788999999999,-0.26318359999999996,-0.9765625,-0.4882813,-0.793457,106.095,0.7745361,82.47437,16.45,-4.4,-0.025,1
33560,0.04052734,0.9619141,-0.2573242,1.098633,-0.793457,-0.9155272999999999,105.9906,0.7800292999999999,82.38647,16.45833,-4.475,0.1333333,1
33860,0.04003906,0.9638671999999999,-0.2646484,1.098633,-0.6713867,-0.8544921999999999,106.2653,0.7965088,82.2876,16.45,-4.55,0.1,1
34100,0.04003906,0.9628905999999999,-0.2670898,0.6103516,-0.7324219,-0.8544921999999999,106.4355,0.8129883,82.17773,15.5,-35.89167,9.891666,1
34350,0.03955078,0.9604492,-0.269043,0.9765625,-0.7324219,-0.8544921999999999,106.5125,0.8239746,82.11182,16.36667,-4.591667,0.05833333,1
34580,0.03955078,0.9609375,-0.27050779999999996,0.42724609999999996,-0.6103516,-0.8544921999999999,106.6443,0.8349609,82.01843,15.43333,-35.575,10.00833,1
34830,0.04003906,0.9614258,-0.2714844,0.1831055,-0.5493163999999999,-0.793457,106.6772,0.8404541,81.95801,15.46667,-35.76667,10.09167,1
35170,0.03955078,0.9624022999999999,-0.2714844,0.06103516,-0.6103516,-0.793457,106.6718,0.8404541,81.85913,16.40833,-4.633333,0.03333333,1
35400,0.03955078,0.9609375,-0.2714844,-0.3662109,-0.3662109,-0.6713867,106.5674,0.8129883,81.77124,15.425,-35.775,10.14167,1
35680,0.04150391,0.9633788999999999,-0.2680664,-0.9155272999999999,-0.3051758,-0.6103516,106.3916,0.7635498,81.73279,16.425,-4.508333,-0.09166667,1
35930,0.04052734,0.9628905999999999,-0.26318359999999996,-1.037598,-0.3662109,-0.6713867,106.084,0.7196045,81.66687,15.24167,-35.99166,9.825,1
36221,0.04199219,0.9633788999999999,-0.2578125,0.9155272999999999,-0.4882813,-0.9155272999999999,105.9906,0.7141113,81.58997,15.33333,-36.1,9.65,1
36510,0.041015630000000004,0.9643554999999999,-0.2617188,1.037598,-0.42724609999999996,-0.8544921999999999,106.1224,0.7250977,81.52954,16.425,-4.533333,0.125,1
36750,0.04150391,0.9628905999999999,-0.2670898,0.793457,-0.5493163999999999,-0.8544921999999999,106.3257,0.736084,81.43066,16.45,-4.55,0.025,1
37020,0.04052734,0.9614258,-0.2675781,0.5493163999999999,-0.6103516,-0.8544921999999999,106.3861,0.7305908,81.35925,15.45833,-35.81667,9.808333,1
37320,0.04248047,0.965332,-0.2719727,-0.3051758,-0.3051758,-0.9155272999999999,106.4081,0.736084,81.29883,16.36667,-4.433333,-0.05833333,1
37590,0.04248047,0.9663086,-0.2670898,1.220703,-0.6713867,-0.8544921999999999,106.4465,0.7470703,81.21643,16.43333,-4.6,0.05,1
37890,0.03857422,0.9633788999999999,-0.269043,1.159668,-0.4882813,-0.9155272999999999,106.5729,0.7635498,81.12854,16.43333,-4.616667,0.075,1
38190,0.041015630000000004,0.9624022999999999,-0.27099609999999996,0.3662109,-0.3662109,-0.793457,106.6882,0.7690429999999999,81.04065,16.39167,-4.625,0.025,1
38500,0.04150391,0.9589844,-0.2695313,0.4882813,-0.6103516,-0.793457,106.7322,0.7580566,80.96375,16.41667,-4.65,0.05833333,1
38730,0.04296875,0.9604492,-0.2744141,0.24414059999999999,-0.6103516,-0.8544921999999999,106.7706,0.7800292999999999,80.89783,16.43333,-4.708333,0.1166667,1
38940,0.041015630000000004,0.9589844,-0.2744141,0.6103516,-0.4882813,-0.8544921999999999,106.8036,0.7910155999999999,80.8429,16.44167,-4.741667,0.1333333,1
39150,0.04003906,0.9594727,-0.2768555,-0.3051758,-0.6713867,-0.7324219,106.897,0.802002,80.78247,15.38333,-35.68333,10.225,1
39390,0.03955078,0.9580078,-0.2724609,-0.12207029999999999,-0.6103516,-0.793457,106.9025,0.8129883,80.72754,16.38333,-4.691667,0.08333334,1
39640,0.04052734,0.9560546999999999,-0.2734375,0.3662109,-0.6713867,-0.793457,107.0068,0.8294678,80.64514,15.26667,-35.6,10.13333,1
39900,0.0390625,0.9599609,-0.2768555,0.7324219,-0.6103516,-0.8544921999999999,107.1497,0.8349609,80.57922,16.4,-4.775,0.06666667,1
40190,0.03955078,0.9570312999999999,-0.27832029999999996,-0.24414059999999999,-0.42724609999999996,-0.7324219,107.2156,0.8404541,80.49683,16.35833,-4.733333,0.01666667,1
40460,0.04150391,0.9575195,-0.2817383,-0.42724609999999996,-0.3051758,-0.8544921999999999,107.1771,0.8239746,80.44739,16.25833,-4.45,0.1166667,1
40770,0.04345703,0.9770508,-0.2988281,-1.220703,-1.037598,-0.8544921999999999,107.7979,0.8349609,80.36499,15.44167,-35.225,10.81667,1
41080,0.03759766,0.9453125,-0.24462889999999998,-0.1831055,-0.6713867,-0.9765625,106.485,0.8569336,80.31555,16.625,-4.825,0.1,1
41380,0.03710938,0.9472655999999999,-0.23291019999999998,-0.4882813,-0.4882813,-0.9765625,106.2653,0.9393311,80.15076,15.44167,-35.88334,9.5,1
41680,0.03515625,0.9829102,-0.300293,1.6479489999999999,-0.06103516,-0.6713867,106.908,0.9777832,80.02441,16.44167,-4.516667,-0.35000000000000003,1
41930,0.02783203,0.9897461,-0.3085938,-4.516602,-0.12207029999999999,-1.403809,106.3202,0.9283446999999999,80.08484,16.35833,-3.958333,-0.4583333,1
42210,0.03808594,0.9663086,-0.265625,3.662109,-1.098633,-1.464844,106.2543,1.257935,79.70032,16.41667,-4.5,0.275,1
42510,0.022460940000000002,0.9731445,-0.2963867,1.89209,-0.06103516,-1.525879,107.0343,1.664429,79.54102,16.34167,-4.425,0.15833329999999998,1
42850,0.02148438,0.9633788999999999,-0.2832031,0.06103516,-0.793457,-0.793457,107.2485,1.878662,79.3927,16.325,-4.633333,0.01666667,1
43050,0.02294922,0.9609375,-0.28125,-0.3662109,-0.12207029999999999,-0.5493163999999999,107.1936,1.801758,79.38171,16.29167,-35.19167,9.841666,1
43290,0.02441406,0.9619141,-0.2607422,0.9765625,-0.7324219,-0.7324219,107.0563,1.768799,79.35425,16.50833,-4.808333,-0.05,1
43560,0.02783203,0.9555663999999999,-0.2680664,0.6713867,-0.12207029999999999,-0.06103516,107.0288,1.6149900000000001,79.40369,16.36667,-4.725,0.1,1
43770,0.02734375,0.9614258,-0.28125,0.9765625,-0.6713867,-0.24414059999999999,107.1716,1.521606,79.38721,16.325,-4.666667,0.025,1
43990,0.03222656,0.9589844,-0.28613279999999996,-0.793457,-0.7324219,-0.9765625,107.2595,1.466675,79.32129,16.00833,-35.29167,10.08333,1
44240,0.02783203,0.9609375,-0.2773438,-0.5493163999999999,-0.4882813,-0.6713867,107.0673,1.450195,79.34326,16.36667,-4.583333,-0.1,1
44491,0.03515625,0.980957,-0.3076172,1.525879,4.516602,-0.9765625,107.1552,1.499634,79.27734,15.991670000000001,-35.36666,10.21667,1
44760,0.03466797,0.9492187999999999,-0.2558594,9.765625,2.563477,-2.685547,107.6935,1.488647,79.61792,16.43333,-5.575,1.208333,1
45980,0.02929688,0.9370117,-0.1655273,0.793457,-0.1831055,-0.06103516,103.5297,1.428223,79.08508,16.51667,-3.7,0.8583333999999999,1
46230,0.028808590000000002,0.9692383,-0.2661133,8.422852,-2.502441,-0.12207029999999999,105.6775,1.109619,79.09058,16.58333,-4.841667,0.1166667,1
46500,0.03759766,0.9667969,-0.2167969,-1.342773,-2.075195,0.06103516,105.8038,1.109619,78.82141,15.66667,-36.375,8.816667,1
46790,0.01318359,0.9780272999999999,-0.246582,1.403809,-0.06103516,-2.746582,105.9412,1.208496,78.76648,15.73333,-36.01667,9.091666,1
47080,0.03173828,0.9838867,-0.30957029999999996,0.4882813,-0.9155272999999999,-1.220703,106.3531,1.257935,78.71155,16.425,-4.083333,0.1833333,1
47330,0.03320313,0.9638671999999999,-0.2539063,-0.793457,-0.1831055,-0.12207029999999999,106.1609,1.274414,78.65112,16.5,-4.366667,0.03333333,1
47630,0.03125,0.9643554999999999,-0.2563477,0.6713867,-0.1831055,-0.6103516,106.1993,1.252441,78.55774,16.43333,-4.333333,0.17500000000000002,1
47970,0.03271484,0.9658203,-0.26220699999999997,1.098633,-0.793457,-0.8544921999999999,106.4465,1.263428,78.46436,16.40833,-4.483333,0.1166667,1
48200,0.03320313,0.9648437999999999,-0.27001949999999997,0.6713867,-0.5493163999999999,-0.793457,106.6608,1.241455,78.40393,15.76667,-35.625,9.866667,1
48481,0.03320313,0.9633788999999999,-0.2675781,0.7324219,-0.6103516,-0.793457,106.7212,1.235962,78.35999,16.39167,-4.541667,0.075,1
48720,0.03222656,0.9619141,-0.2685547,0.12207029999999999,-0.6103516,-0.7324219,106.7871,1.241455,78.28308,15.775,-35.525,9.808333,1
48950,0.03417969,0.9624022999999999,-0.27001949999999997,0.6103516,-0.6713867,-0.9765625,106.7981,1.230469,78.23364,16.375,-4.591667,0.06666667,1
49200,0.03369141,0.9609375,-0.2680664,-0.06103516,-0.6103516,-0.7324219,106.7871,1.241455,78.16772,16.39167,-4.608333,0.05,1
49410,0.03369141,0.9614258,-0.2675781,0.3051758,-0.6103516,-0.7324219,106.8091,1.219482,78.10181,16.43333,-4.658333,0.04166667,1
49640,0.03369141,0.9619141,-0.2719727,0.06103516,-0.5493163999999999,-0.793457,106.8146,1.219482,78.03589,16.38333,-4.575,-0.025,1
49880,0.03369141,0.9614258,-0.27050779999999996,-0.4882813,-0.42724609999999996,-0.793457,106.6608,1.1920169999999999,77.948,16.44167,-4.583333,-0.04166667,1
50120,0.03515625,0.9614258,-0.2651367,-0.42724609999999996,-0.6103516,-0.8544921999999999,106.4355,1.170044,77.87659,15.60833,-35.675,9.65,1
50400,0.03271484,0.9628905999999999,-0.2641602,0.0,-0.5493163999999999,-0.793457,106.3367,1.164551,77.82715,16.44167,-4.508333,0.06666667,1
50640,0.03369141,0.9633788999999999,-0.265625,0.9155272999999999,-0.7324219,-0.8544921999999999,106.441,1.164551,77.7063,15.70833,-35.78333,9.808333,1
50940,0.03466797,0.9619141,-0.2714844,0.4882813,-0.6103516,-0.793457,106.5399,1.170044,77.60742,16.425,-4.616667,0.01666667,1
51250,0.03417969,0.9453125,-0.26220699999999997,5.493164,-0.8544921999999999,-0.7324219,106.9409,1.175537,77.49756000000001,15.76667,-35.38334,10.11667,1
51540,0.03613281,0.9487304999999999,-0.2514648,-5.187988,0.1831055,-0.8544921999999999,106.6443,1.087646,77.50305,15.81667,-35.66667,9.958333,1
51830,0.03076172,0.9711913999999999,-0.2617188,-3.234863,-0.5493163999999999,-0.6713867,106.2213,1.175537,77.31628,16.21667,-4.283333,-0.6333333,1
52160,0.02539063,0.9624022999999999,-0.26318359999999996,3.051758,1.89209,1.281738,106.0291,1.329346,77.21741,16.55,-4.816667,-0.1416667,1
52530,0.02783203,0.9736328,-0.2797852,0.8544921999999999,-1.281738,-0.793457,106.4301,1.246948,77.10754,15.84167,-35.75,9.633333,1
52780,0.028808590000000002,0.9594727,-0.269043,1.7700200000000001,0.5493163999999999,-0.5493163999999999,106.5784,1.208496,77.09656,16.33333,-4.875,0.0,1
53040,0.03564453,0.9545897999999999,-0.2529297,0.6713867,0.6103516,-0.4882813,106.6663,1.142578,77.07458,16.53333,-4.908333,0.2833333,1
53260,0.04443359,0.9511719,-0.2607422,-2.868652,-1.525879,-3.2958979999999998,106.4905,1.170044,77.16248,15.71667,-35.60833,9.8,1
53480,0.01904297,0.9916992,-0.3066406,0.6103516,-2.807617,-0.6713867,106.6168,1.439209,76.95374,16.38333,-4.441667,-0.25,1
53740,0.03320313,0.9545897999999999,-0.2680664,1.8310549999999999,-1.7700200000000001,-1.708984,106.3806,1.593018,76.69556,16.08333,-35.74166,9.366667,1
54000,0.04296875,0.9458008,-0.24072269999999998,-0.6713867,-0.6103516,-1.6479489999999999,106.3806,1.560059,76.63513,16.425,-4.758333,-0.03333333,1
54270,0.02294922,0.9511719,-0.25488279999999996,4.455566,-0.9765625,-0.793457,106.7047,1.571045,76.60217,16.74167,-5.266667,0.1833333,1
54540,0.03222656,0.9667969,-0.2675781,-1.708984,1.220703,-0.7324219,106.7926,1.4556879999999999,76.72302,16.30833,-4.375,-0.1666667,1
54790,0.03466797,0.9692383,-0.2773438,0.9155272999999999,-0.6103516,-0.3662109,106.3751,1.461182,76.36047,16.375,-4.225,-0.4,1
55081,0.03369141,0.9628905999999999,-0.2275391,-1.281738,-0.6103516,-1.6479489999999999,105.3644,1.373291,76.39343,15.95,-36.14167,8.616667,1
55350,0.03222656,0.9697266,-0.27832029999999996,5.065918,-0.3662109,-0.4882813,106.6113,1.389771,76.37695,16.0,-35.71667,9.533334,1
55650,0.03173828,0.9638671999999999,-0.2758789,0.6713867,-0.5493163999999999,-0.793457,107.0288,1.356812,76.36597,16.475,-4.666667,0.06666667,1
55910,0.03076172,0.9599609,-0.27099609999999996,0.42724609999999996,-0.793457,-0.8544921999999999,107.0233,1.378784,76.28357,16.41667,-4.575,0.0,1
56180,0.030273440000000002,0.9624022999999999,-0.2714844,0.6103516,-0.6713867,-0.7324219,107.0673,1.367798,76.23413,16.38333,-4.666667,0.03333333,1
56520,0.03222656,0.9609375,-0.2734375,0.3662109,-0.7324219,-0.793457,107.1771,1.345825,76.1792,16.39167,-4.691667,0.09166667,1
56831,0.03173828,0.9584961,-0.2744141,0.7324219,-0.6103516,-0.8544921999999999,107.2595,1.340332,76.10229,16.36667,-4.741667,0.08333334,1
57050,0.03076172,0.9609375,-0.28613279999999996,-0.1831055,-0.6103516,-0.7324219,107.3145,1.3348389999999999,76.03638,16.38333,-4.7,0.008333334000000001,1
57280,0.03222656,0.9594727,-0.2817383,-0.06103516,-0.8544921999999999,-0.793457,107.276,1.3348389999999999,75.97595,16.4,-4.683333,0.01666667,1
57490,0.03222656,0.9589844,-0.269043,-0.42724609999999996,-0.3662109,-0.793457,107.1991,1.312866,75.89355,15.825,-35.24166,9.991667,1
57720,0.03076172,0.9633788999999999,-0.27880859999999996,-0.42724609999999996,-0.3662109,-0.5493163999999999,107.0837,1.274414,75.83862,16.43333,-4.683333,-0.075,1
57970,0.03271484,0.9619141,-0.2670898,-0.3662109,-0.6103516,-0.8544921999999999,106.842,1.230469,75.80566,15.70833,-35.55,9.816667,1
58220,0.03515625,0.9614258,-0.2695313,0.0,-0.42724609999999996,-0.7324219,106.7816,1.224976,75.75623,16.38333,-4.566667,0.08333334,1
58500,0.03417969,0.9599609,-0.2695313,0.8544921999999999,-0.6713867,-0.9155272999999999,106.8311,1.219482,75.72327,16.4,-4.616667,0.05833333,1
58730,0.03417969,0.9599609,-0.2719727,0.4882813,-0.6103516,-0.8544921999999999,107.0618,1.246948,75.64087,16.4,-4.7,0.1333333,1
58970,0.03222656,0.9604492,-0.2763672,0.4882813,-0.5493163999999999,-0.9155272999999999,107.2485,1.268921,75.56946,15.76667,-35.375,10.11667,1
59280,0.03320313,0.9584961,-0.2763672,0.42724609999999996,-0.5493163999999999,-0.8544921999999999,107.2925,1.279907,75.52002,16.375,-4.741667,-0.008333334000000001,1
59520,0.03320313,0.9584961,-0.2758789,0.06103516,-0.6103516,-0.793457,107.3584,1.290894,75.4541,16.39167,-4.783333,0.05833333,1
59790,0.03222656,0.9589844,-0.27783199999999997,0.4882813,-0.6713867,-0.793457,107.4078,1.296387,75.41016,16.375,-4.775,0.025,1
60040,0.03271484,0.9604492,-0.27783199999999997,0.06103516,-0.4882813,-0.8544921999999999,107.3639,1.296387,75.32776,16.38333,-4.741667,-0.008333334000000001,1
60360,0.03271484,0.9624022999999999,-0.27783199999999997,-0.12207029999999999,-0.5493163999999999,-0.793457,107.2321,1.274414,75.23987,16.38333,-4.708333,-0.008333334000000001,1
60630,0.03222656,0.9614258,-0.2734375,-0.3662109,-0.42724609999999996,-0.7324219,107.0453,1.241455,75.16846,16.39167,-4.625,-0.08333334,1
61060,0.03515625,0.9575195,-0.2670898,0.06103516,-0.793457,-0.7324219,106.7596,1.186523,75.08057,16.35,-4.65,0.06666667,1
61320,0.03417969,0.9619141,-0.2719727,0.7324219,-0.4882813,-0.8544921999999999,106.8915,1.203003,74.99268000000001,15.70833,-35.625,9.625,1
61580,0.03613281,0.9565429999999999,-0.2685547,1.281738,-0.4882813,-0.4882813,106.886,1.175537,74.95972,15.741670000000001,-35.58333,9.975,1
62820,0.030273440000000002,0.9487304999999999,-0.22998049999999998,0.0,-0.12207029999999999,-0.9155272999999999,106.6333,1.367798,74.58069,16.39167,-4.608333,0.36666669999999996,1
63020,0.03320313,0.9604492,-0.2739258,0.4882813,-0.9765625,-1.037598,107.1936,1.312866,74.5697,16.43333,-4.758333,-0.03333333,1
63300,0.03173828,0.9624022999999999,-0.2744141,-1.220703,-0.24414059999999999,-0.5493163999999999,107.1167,1.323853,74.50928,16.44167,-4.658333,-0.1916667,1
63510,0.03515625,0.9638671999999999,-0.2685547,-1.098633,-0.24414059999999999,-0.7324219,106.8585,1.257935,74.50928,16.4,-4.516667,-0.03333333,1
63740,0.03271484,0.9628905999999999,-0.2646484,0.1831055,-0.4882813,-0.793457,106.6882,1.235962,74.45984,16.425,-4.55,0.06666667,1
64000,0.03369141,0.9609375,-0.27050779999999996,0.793457,-0.24414059999999999,-0.7324219,106.7596,1.230469,74.43237,16.3,-4.491667,0.05,1
64260,0.03320313,0.9594727,-0.2773438,3.601074,-1.708984,-1.525879,107.3199,1.30188,74.29504,16.51667,-4.933333,0.4,1
64560,0.03076172,0.9599609,-0.2915039,1.159668,0.06103516,-0.5493163999999999,108.0011,1.351318,74.23462,16.325,-4.908333,-0.008333334000000001,1
64820,0.03320313,0.9580078,-0.28613279999999996,-0.9765625,-0.5493163999999999,-0.7324219,107.8198,1.30188,74.21814,15.875,-35.13334,10.29167,1
65170,0.03320313,0.9604492,-0.2797852,-0.12207029999999999,-0.6103516,-0.8544921999999999,107.6001,1.30188,74.17419,15.93333,-35.38334,10.15,1
65420,0.03466797,0.9658203,-0.2807617,-0.8544921999999999,-0.3051758,-0.6713867,107.4792,1.2854,74.14673,16.36667,-4.641667,-0.4166667,1
65760,0.03417969,0.9580078,-0.2695313,0.8544921999999999,0.06103516,-0.9155272999999999,107.1771,1.208496,74.16321,15.56667,-35.74166,10.11667,1
66050,0.04833984,0.9555663999999999,-0.2587891,-0.12207029999999999,-1.586914,-1.7700200000000001,106.9849,0.9887695,74.19617,15.40833,-35.88334,9.766666,1
66350,0.03271484,0.9633788999999999,-0.2739258,1.525879,-1.586914,-2.01416,107.3969,1.1920169999999999,74.0918,15.68333,-35.35833,10.05,1
66680,0.03173828,0.9565429999999999,-0.2773438,1.220703,-0.5493163999999999,-0.8544921999999999,107.6495,1.40625,73.89954,16.2,-4.583333,0.5416667,1
66910,0.03125,0.9594727,-0.3061523,6.530762,-0.3051758,-1.220703,108.3856,1.4556879999999999,73.97644,16.43333,-5.425,0.325,1
67140,0.03125,0.9545897999999999,-0.29394529999999996,0.8544921999999999,-1.220703,-0.9155272999999999,108.7976,1.516113,73.88306,16.33333,-5.241667,-0.1416667,1
67350,0.03076172,0.953125,-0.30175779999999996,-0.3051758,-0.3662109,-0.6103516,108.7262,1.422729,73.87756,15.8,-34.73333,10.93333,1
67590,0.03125,0.9560546999999999,-0.29345699999999997,-1.7700200000000001,-0.12207029999999999,-0.7324219,108.501,1.384277,73.87756,16.3,-4.925,-0.1,1
67820,0.03076172,0.9536133,-0.2802734,-1.098633,-1.464844,-0.42724609999999996,108.1549,1.279907,73.81714,15.866670000000001,-35.08333,10.741670000000001,1
68080,0.03417969,0.9594727,-0.29394529999999996,0.8544921999999999,-0.5493163999999999,-0.7324219,108.2538,1.312866,73.6908,16.29167,-4.791667,0.275,1
68364,0.02978516,0.9560546999999999,-0.2919922,0.42724609999999996,-0.3662109,-0.6713867,108.5724,1.373291,73.66333,15.825,-34.81667,10.75833,1
68660,0.03173828,0.9545897999999999,-0.2978516,0.4882813,-0.3051758,-0.793457,108.6328,1.340332,73.62488,16.30833,-4.916667,0.2083333,1
69000,0.030273440000000002,0.9619141,-0.3266602,-0.9765625,-0.3662109,-0.7324219,108.9514,1.329346,73.58643000000001,16.31667,-4.966667,-0.2583333,1
69260,0.03222656,0.9570312999999999,-0.2895508,-2.075195,-1.220703,-1.281738,108.3197,1.400757,73.40515,16.29167,-4.775,-0.275,1
69570,0.02929688,0.9584961,-0.2954102,-1.403809,-0.9155272999999999,-1.586914,108.0231,1.477661,73.3667,16.25833,-4.625,-0.2333333,1
69800,0.01953125,0.9589844,-0.2817383,2.624512,-1.342773,-1.6479489999999999,108.0231,1.757813,73.16895,16.21667,-4.641667,0.49166669999999996,1
70100,0.03222656,0.9604492,-0.3164063,-0.7324219,0.3051758,-0.7324219,108.8031,1.642456,73.16895,16.3,-5.025,-0.25,1
70400,0.028808590000000002,0.9555663999999999,-0.2885742,-0.24414059999999999,-0.4882813,-0.5493163999999999,108.3417,1.549072,73.2019,16.35833,-4.941667,0.0,1
70740,0.028808590000000002,0.9536133,-0.2739258,-2.868652,-0.3051758,-0.6713867,107.9352,1.494141,73.19641,16.15833,-4.45,0.24166669999999998,1
71050,0.03076172,0.9604492,-0.30126949999999997,2.01416,-0.4882813,-0.793457,108.4515,1.483154,73.13049,16.26667,-4.825,0.17500000000000002,1
71240,0.03125,0.9584961,-0.3007813,2.502441,-0.3662109,-0.6103516,108.7537,1.450195,73.13599,16.3,-5.116667,-0.1416667,1
71500,0.02978516,0.9550780999999999,-0.2998047,0.3662109,-0.5493163999999999,-0.9155272999999999,108.5834,1.450195,73.10852,16.30833,-5.058333,0.0,1
71800,0.03125,0.9545897999999999,-0.29345699999999997,0.24414059999999999,-0.4882813,-0.8544921999999999,108.5614,1.461182,73.06458,16.31667,-5.0,-0.025,1
72060,0.03173828,0.953125,-0.2890625,-0.5493163999999999,-0.42724609999999996,-0.6713867,108.4735,1.4556879999999999,73.0426,16.26667,-4.933333,-0.1333333,1
72310,0.03173828,0.9565429999999999,-0.2895508,-0.7324219,-0.6713867,-0.9155272999999999,108.1989,1.417236,73.01514,16.29167,-4.8,-0.06666667,1
72640,0.03222656,0.9560546999999999,-0.28662109999999996,0.42724609999999996,-0.6103516,-0.793457,108.1219,1.422729,72.96021,16.31667,-4.866667,0.1166667,1
72890,0.03271484,0.9565429999999999,-0.2890625,0.9765625,-0.5493163999999999,-0.793457,108.3142,1.433716,72.90527,16.31667,-4.891667,0.1083333,1
73200,0.03271484,0.9536133,-0.2885742,0.6713867,-0.5493163999999999,-0.8544921999999999,108.4735,1.444702,72.85034,15.94167,-35.04167,10.51667,1
73490,0.03173828,0.9536133,-0.2915039,0.3662109,-0.5493163999999999,-0.793457,108.4845,1.439209,72.76794,16.3,-5.008333,0.05,1
73810,0.03222656,0.953125,-0.2890625,0.12207029999999999,-0.5493163999999999,-0.8544921999999999,108.4241,1.433716,72.67456,15.75,-34.85833,10.625,1
74100,0.03076172,0.9545897999999999,-0.29443359999999996,0.06103516,-0.42724609999999996,-0.793457,108.4131,1.417236,72.59216,15.96667,-34.89167,10.65833,1
74390,0.03173828,0.9545897999999999,-0.29345699999999997,-0.24414059999999999,-0.42724609999999996,-0.7324219,108.2977,1.40625,72.50977,16.3,-4.95,-0.09166667,1
74700,0.03222656,0.9555663999999999,-0.2890625,-0.793457,-0.4882813,-0.6103516,108.0231,1.3623049999999999,72.44934,15.69167,-35.0,10.51667,1
75040,0.03369141,0.9570312999999999,-0.2880859,0.24414059999999999,-0.6103516,-0.8544921999999999,107.8363,1.345825,72.37244,16.30833,-4.85,0.05,1
75330,0.03222656,0.9570312999999999,-0.2890625,0.793457,-0.7324219,-0.8544921999999999,107.9187,1.345825,72.27905,16.375,-4.95,0.08333334,1
75660,0.03173828,0.9580078,-0.2919922,0.3051758,-0.7324219,-0.8544921999999999,108.0396,1.351318,72.18018000000001,16.34167,-4.983333,0.1,1
76030,0.03076172,0.9555663999999999,-0.2924805,0.3051758,-0.5493163999999999,-0.793457,108.0725,1.356812,72.06482,15.9,-34.875,10.58333,1
76280,0.03125,0.9536133,-0.2915039,0.793457,-0.3051758,-0.793457,108.067,1.351318,71.98242,15.85,-34.84167,10.70833,1
76530,0.03125,0.9570312999999999,-0.3129883,-1.403809,-0.7324219,-0.7324219,108.1329,1.367798,71.92749,16.175,-4.566667,-0.025,1
76800,0.028808590000000002,0.9575195,-0.2973633,2.441406,-0.793457,-0.7324219,108.2593,1.378784,71.92749,16.35,-5.316667,-0.1416667,1
77020,0.03271484,0.949707,-0.2758789,-1.708984,-0.3051758,-0.9765625,108.1274,1.3623049999999999,71.90552,16.325,-4.975,0.0,1
77290,0.03417969,0.9550780999999999,-0.2807617,-1.403809,-0.1831055,-0.7324219,107.8418,1.356812,71.86707,16.28333,-4.7,0.04166667,1
77540,0.03320313,0.9550780999999999,-0.27783199999999997,0.1831055,-0.3662109,-0.6103516,107.7814,1.351318,71.84509,16.31667,-4.866667,0.1416667,1
77850,0.03173828,0.9584961,-0.2832031,0.6713867,-0.4882813,-0.7324219,107.9846,1.367798,71.78467,16.35833,-4.941667,0.15,1
78120,0.03222656,0.9560546999999999,-0.2880859,0.8544921999999999,-0.6103516,-0.9155272999999999,108.1604,1.373291,71.73523,15.85,-35.03333,10.55,1
78420,0.03222656,0.9560546999999999,-0.2905273,0.42724609999999996,-0.42724609999999996,-0.793457,108.2538,1.384277,71.69678,16.33333,-4.991667,0.03333333,1
78670,0.03173828,0.9570312999999999,-0.2905273,0.0,-0.4882813,-0.793457,108.2098,1.378784,71.61438,16.33333,-5.008333,0.05833333,1
78930,0.03222656,0.9555663999999999,-0.29345699999999997,0.5493163999999999,-0.5493163999999999,-0.8544921999999999,108.2098,1.367798,71.521,16.0,-34.975,10.80833,1
80250,0.02978516,0.9589844,-0.2875977,1.220703,-0.6713867,-0.8544921999999999,107.7319,1.296387,71.22986,16.375,-5.125,0.008333334000000001,1
80500,0.03076172,0.9560546999999999,-0.28613279999999996,2.868652,-0.793457,-0.9765625,107.9352,1.329346,71.15845,16.41667,-5.325,0.05833333,1
80750,0.03173828,0.9521484,-0.2832031,0.9765625,-0.6713867,-0.9155272999999999,108.111,1.3348389999999999,71.1145,16.375,-5.175,0.09166667,1
81080,0.03369141,0.949707,-0.28613279999999996,0.4882813,-0.6713867,-0.9155272999999999,108.1879,1.345825,71.07056,16.33333,-5.108333,-0.05833333,1
81390,0.03271484,0.9570312999999999,-0.296875,0.6713867,-0.8544921999999999,-0.8544921999999999,108.2538,1.373291,71.01013,16.30833,-4.95,0.025,1
81650,0.03222656,0.9555663999999999,-0.2915039,0.24414059999999999,-0.4882813,-0.793457,108.3087,1.373291,70.97717,16.33333,-4.966667,0.05,1
81920,0.03125,0.9570312999999999,-0.2905273,0.1831055,-0.42724609999999996,-0.793457,108.2922,1.373291,70.94971,16.30833,-4.975,-0.03333333,1
82140,0.03320313,0.9570312999999999,-0.2905273,-0.4882813,-0.42724609999999996,-0.7324219,108.0396,1.3348389999999999,70.8783,15.75,-35.35,10.59167,1
82400,0.03173828,0.9570312999999999,-0.284668,-0.3662109,-0.42724609999999996,-0.7324219,107.8363,1.312866,70.83435,16.325,-4.833333,-0.1083333,1
82660,0.03222656,0.9584961,-0.28613279999999996,-0.12207029999999999,-0.42724609999999996,-0.7324219,107.6935,1.279907,70.7959,16.325,-4.8,0.075,1
82860,0.03369141,0.9570312999999999,-0.2851563,1.159668,-0.6103516,-0.8544921999999999,107.8638,1.296387,70.7135,15.75833,-35.075,10.45833,1
83110,0.03271484,0.9560546999999999,-0.2880859,0.8544921999999999,-0.6713867,-0.8544921999999999,108.0176,1.312866,70.67505,16.325,-4.925,0.075,1
83390,0.03222656,0.9541016,-0.29345699999999997,0.5493163999999999,-0.6103516,-0.793457,108.1824,1.3348389999999999,70.62561,16.30833,-4.916667,0.008333334000000001,1
83690,0.03271484,0.9560546999999999,-0.2929688,0.6103516,-0.6713867,-0.8544921999999999,108.3087,1.351318,70.57617,16.30833,-4.983333,0.05,1
83960,0.03222656,0.9575195,-0.2919922,-1.159668,-0.5493163999999999,-0.7324219,108.2758,1.356812,70.53223,15.84167,-35.025,10.70833,1
84230,0.03222656,0.9516602,-0.2753906,0.9765625,-0.24414059999999999,-0.6713867,108.1219,1.3348389999999999,70.52673,16.30833,-5.033333,0.2083333,1
84480,0.03222656,0.9555663999999999,-0.29443359999999996,-0.42724609999999996,-0.42724609999999996,-0.793457,108.4406,1.389771,70.43884,15.775,-35.1,10.64167,1
84770,0.03320313,0.9541016,-0.284668,-0.12207029999999999,-0.6103516,-0.793457,108.1494,1.400757,70.37842,15.741670000000001,-35.275,10.525,1
85050,0.03613281,0.9536133,-0.2817383,-0.6713867,-0.3662109,-0.7324219,108.1055,1.395264,70.33997,16.31667,-4.808333,0.08333334,1
85330,0.03320313,0.9575195,-0.2900391,0.4882813,-0.42724609999999996,-0.793457,108.2703,1.384277,70.34546,16.3,-4.941667,0.03333333,1
85610,0.03369141,0.9555663999999999,-0.28613279999999996,-0.3662109,-0.6713867,-0.8544921999999999,108.2538,1.378784,70.30701,16.325,-4.925,-0.17500000000000002,1
85980,0.03320313,0.9541016,-0.2832031,1.159668,-0.6103516,-0.793457,108.2098,1.400757,70.2356,15.866670000000001,-35.06667,10.55833,1
86220,0.03417969,0.9570312999999999,-0.29492189999999996,0.0,-0.4882813,-0.7324219,108.4406,1.395264,70.21362,16.31667,-5.025,-0.06666667,1
86490,0.03320313,0.9550780999999999,-0.2851563,-0.4882813,-0.6713867,-0.9155272999999999,108.2977,1.400757,70.18616,16.25,-4.875,0.2333333,1
86700,0.03271484,0.9584961,-0.3071289,1.037598,-0.3662109,-0.5493163999999999,108.7866,1.40625,70.13123,15.79167,-35.03333,10.73333,1
87000,0.03222656,0.953125,-0.2675781,0.3662109,-0.9155272999999999,-1.098633,108.2593,1.411743,70.11475,16.45,-5.375,-0.04166667,1
87260,0.03417969,0.9536133,-0.2744141,-1.220703,-0.42724609999999996,-0.6103516,108.1165,1.395264,70.08179,16.28333,-4.616667,0.08333334,1
87510,0.03515625,0.9648437999999999,-0.27880859999999996,-3.845215,-0.6103516,-0.793457,107.7594,1.40625,70.00488,16.24167,-4.525,-0.4583333,1
87840,0.03076172,0.9604492,-0.2822266,3.662109,-0.1831055,-0.6103516,107.5726,1.433716,69.94446,16.41667,-4.858333,0.4166667,1
88110,0.02832031,1.016602,-0.2958984,-17.51709,4.760742,-1.159668,107.254,1.203003,70.0708,17.54167,-4.525,-4.083333,1
88400,0.07470703000000001,1.224121,-0.27783199999999997,-65.12451,3.417969,-4.516602,94.2572,0.9613037,70.17517,17.125,2.183333,-10.23333,1
88750,0.02587891,0.8691405999999999,0.2841797,-31.37207,8.300781,6.347656,75.96497,0.7745361,70.76294,15.78333,5.05,-0.8083332999999999,1
89010,0.1015625,1.009766,0.1835938,28.86963,4.943848,4.089355,75.81665,-0.2526855,72.57019,15.85833,3.408333,3.108333,1
89310,0.017089840000000002,0.949707,0.1367188,20.1416,14.52637,4.211426,80.88684,-0.4229736,75.50903,12.375,-45.41667,-5.9,1
89650,0.1489258,1.093262,0.1152344,21.78955,52.67334,12.57324,85.15503,-1.318359,85.42969,6.816667,-45.23333,2.7,1
89960,0.16650389999999998,0.9277344,0.015625,-5.981445,43.09082,5.065918,86.15479,-4.603271,98.34961,15.91667,-0.3833333,-0.9083334,1
90240,-0.09570313,1.193359,0.08642578000000001,15.19775,33.99658,-8.239746,88.46191,-1.115112,110.9344,18.60833,3.433333,0.30000000000000004,1
90600,-0.1459961,0.9951171999999999,-0.02001953,-11.1084,39.73389,3.112793,91.79077,2.471924,122.157,-3.916667,-42.05,13.83333,1
90970,-0.2167969,0.9599609,-0.1552734,22.58301,9.399414,23.13232,90.59875,-1.7248539999999999,131.1493,22.325,3.416667,4.216667,1
91190,0.1953125,0.8603516,0.05175781,2.380371,37.35352,9.643555,95.20752,-4.553833,137.829,-17.43333,-40.21667,15.94167,1
91440,0.12451169999999999,0.9790038999999999,-0.09277344,-4.943848,24.84131,-14.83154,94.20776,-5.581055,144.6185,16.11667,-0.5750000000000001,-0.7666666999999999,1
91710,0.159668,0.9614258,-0.2436523,20.01953,29.90723,-11.16943,94.21875,-3.081665,150.8972,21.25833,3.891667,-1.45,1
91950,-0.05712891,0.8764647999999999,0.05224609,3.356934,-17.27295,-17.39502,95.08667,-2.2796629999999998,153.8965,16.50833,-0.6833332999999999,0.075,1
92210,-0.05908203,0.921875,-0.04199219,-13.06152,-1.7700200000000001,15.625,92.85095,-2.373047,153.4131,22.15833,0.225,0.5833332999999999,1
92630,0.03466797,1.103027,-0.02001953,-9.643555,17.39502,13.73291,96.23474,-4.372559,152.3749,15.2,-0.24166669999999998,0.2583333,1
92940,0.18212889999999998,0.9511719,-0.04541016,-16.72363,3.967285,-4.150391,93.81775,-6.575317,153.4351,16.00833,-0.9666665999999999,-2.266667,1
93170,-0.04589844,1.162109,0.14697269999999998,-7.324219,17.51709,-8.300781,94.29565,-3.488159,158.269,17.28333,1.358333,1.133333,1
93420,-0.07128906,0.9765625,-0.009765625,-8.178711,-26.36719,-2.13623,95.75684,-0.9997558999999999,155.6543,15.24167,-0.425,-2.9,1
93750,-0.09667969,1.019043,-0.11279299999999999,3.4790039999999998,-21.66748,11.23047,91.18652,-3.603516,149.2438,-21.475,-45.6,13.45,1
94050,0.15136719999999998,0.9760742,0.07714844,-12.26807,8.178711,15.19775,93.74084,-4.812012,147.2388,15.71667,-0.01666667,0.1833333,1
94360,0.1630859,0.9272461,-0.07373047,-10.13184,10.80322,-29.72412,90.45044,-5.987549,148.9417,-22.49167,-46.20833,13.30833,1
94670,-0.2070313,1.173828,-0.0034179690000000003,-6.347656,-11.53564,-19.16504,94.65271,-3.592529,154.6216,14.60833,0.4,0.8166667,1
95010,0.002929688,0.8979492,-0.09472656,-13.67188,4.089355,16.41846,93.09265,-2.664185,148.6725,16.025,-0.2916667,0.425,1
95280,0.1118164,0.7709961,0.1210938,15.68604,27.34375,-2.807617,93.59253,-5.07019,149.3591,-22.91667,-44.225,16.39167,1
95660,0.1445313,0.9345703,-0.09667969,-15.25879,6.286621,-21.48438,92.09839,-6.416016,154.726,-24.875,-44.30833,14.575,1
95900,-0.2895508,1.118164,0.40478519999999996,-18.61572,10.0708,4.760742,92.80701,-4.328613,159.0765,23.71667,0.5166666999999999,-0.225,1
96160,-0.01757813,0.9223633,-0.04199219,-14.95361,-27.46582,3.173828,93.86719,-2.466431,154.3469,-21.275,-42.375,16.65,1
96400,-0.02783203,0.9770508,-0.00390625,-0.5493163999999999,-17.7002,15.86914,92.11487,-5.147095,149.9414,21.225,-2.041667,0.5333333,1
96640,0.03320313,0.984375,0.1777344,37.41455,-0.3051758,-26.06201,95.48767,-4.872437,147.6617,15.69167,1.308333,-0.15833329999999998,1
97830,0.3188477,1.11377,0.2270508,-9.82666,6.04248,-1.8310549999999999,94.30664,-5.93811,152.9846,20.775,1.175,2.275,1
98040,0.1137695,0.8203125,0.001953125,-7.568359,0.7324219,12.51221,95.66895,-4.053955,153.067,14.33333,-1.5,-0.4,1
98270,0.2431641,1.039063,-0.24853519999999998,37.78076,1.464844,-9.94873,95.97656,-2.993774,155.0665,17.65,3.841667,-2.633333,1
98570,-0.1079102,0.7963867,0.04785156,-12.08496,-21.3623,-8.239746,96.72363,-3.026733,155.4236,-20.14167,-39.0,16.66667,1
98910,-0.128418,1.178223,-0.3779297,21.85059,-17.57813,7.141113,93.74634,-6.218262,150.9467,12.5,4.441667,0.1083333,1
99180,0.09375000000000001,0.8344727,0.017089840000000002,11.41357,31.61621,18.61572,96.01501,-5.993042,155.7971,-25.175,-39.05833,15.375,1
99470,0.15820309999999999,1.351563,-0.1806641,35.03418,23.74268,-7.69043,95.55359,-3.966064,161.7957,-25.65833,-41.15,13.56667,1
99750,-0.19042969999999998,0.9638671999999999,0.06152344,1.586914,-32.59277,-19.04297,95.99854,-4.207764,161.142,13.98333,0.49166669999999996,-0.525,1
100000,-0.04785156,1.023438,-0.02539063,-15.07568,-24.16992,26.24512,92.77405,-4.718628,154.6216,-23.16667,-41.65833,14.90833,1
100330,0.2265625,0.9121094,0.07177734,9.155273,22.58301,3.967285,96.77307,-4.740601,152.5452,13.40833,-0.2916667,-0.925,1
100610,0.15087889999999998,0.984375,-0.02978516,0.8544921999999999,5.249023,-22.27783,94.81201,-4.449463,159.0875,25.53333,-2.133333,-2.991667,1
100910,-0.1606445,0.9169921999999999,0.04052734,-3.967285,-32.53174,-7.080078,96.95984,-4.130859,158.3569,14.71667,-0.1916667,-2.225,1
101280,-0.01025391,1.064941,-0.060546880000000004,16.6626,-7.019043,17.45605,93.0542,-6.295166,151.2433,21.91667,4.833333,2.9333329999999997,1
101550,0.09472656,0.8666992,-0.0004882813,9.094238,42.5415,15.25879,97.12463,-5.921631,155.5334,13.68333,-0.5083333,-1.108333,1
101780,0.11865229999999999,1.021484,-0.3032227,34.66797,9.643555,-8.544922,95.45471,-4.487915,162.3395,-26.8,-38.38334,15.075,1
102020,-0.011230470000000001,1.314453,0.005859375,-43.21289,-7.324219,-18.31055,97.58606,-5.108643,162.8888,12.70833,0.7416667,-1.725,1
102270,-0.09179688,0.8754883,-0.06542969,-22.52197,-20.75195,9.94873,94.66919,-2.598267,158.9117,15.70833,-1.508333,-3.425,1
102540,0.34130859999999996,0.6889647999999999,0.284668,1.098633,16.29639,-24.96338,94.40552,-5.059204,155.462,21.675,0.1833333,-4.075,1
102790,0.07666016,0.8110352,-0.01367188,4.699707,26.7334,19.59229,96.27319,-5.39978,158.1427,13.88333,-2.066667,-2.308333,1
103000,0.1401367,0.9760742,-0.04296875,-4.638672,6.103516,-29.90723,93.86719,-3.850708,161.5265,25.49167,-1.7,0.3333333,1
103220,-0.11083979999999999,0.9033203,0.05029297,2.624512,-32.59277,-6.347656,96.64673,-3.702393,159.4611,-22.59167,-39.225,14.70833,1
103490,0.005371094000000001,1.083008,-0.1264648,28.50342,-6.347656,4.150391,93.06519,-5.31189,151.485,-21.28333,-40.61666,13.49167,1
103830,0.08740234,0.7954102,0.02587891,0.1831055,36.13281,25.81787,96.54785,-5.394287,155.874,-24.65,-38.78333,14.13333,1
104120,0.1611328,1.204102,-0.2080078,26.18408,20.1416,-1.220703,96.68518,-3.90564,160.6476,17.98333,2.85,8.616667,1
104430,-0.13476559999999999,0.8740234,0.04199219,0.3051758,-14.83154,-10.55908,96.67969,-4.119873,159.9719,14.04167,-0.4666667,-1.216667,1
104720,-0.02148438,1.125488,-0.1181641,17.15088,-7.324219,11.65771,92.48291,-6.712646,157.7087,20.40833,4.183333,0.425,1
104990,0.11865229999999999,0.7744141,0.03173828,6.835938,12.45117,20.01953,95.13611,-5.575562,158.3624,14.01667,-1.9583329999999999,-1.05,1
105270,0.03564453,1.442871,-0.1201172,35.70557,22.94922,5.493164,96.25671,-3.806763,163.0646,26.20833,-0.4666667,10.29167,1
105570,-0.08349609,0.7729492,-0.028808590000000002,-8.483887,-40.1001,-5.126953,94.83398,-3.048706,156.7694,12.35,-2.383333,-3.4,1
105810,0.04785156,1.177246,-0.2119141,27.03857,-11.23047,9.643555,93.44971,-5.498657,150.705,17.2,4.8,1.041667,1
106030,0.08740234,0.8125,-0.002929688,3.601074,36.31592,13.61084,98.16284,-6.086426,154.6161,-23.09167,-38.48333,14.475,1
106330,-0.02832031,1.446777,-0.005371094000000001,-5.859375,14.03809,9.338379,98.57483,-3.850708,160.73,-22.44167,-38.39167,14.63333,1
106630,-0.046875,0.8564453,-0.01904297,0.1831055,-39.85596,-17.45605,98.61328,-3.7683109999999997,158.5162,14.43333,-1.808333,-2.025,1
106830,-0.1113281,1.220703,-0.32568359999999996,22.3999,-5.187988,-1.586914,96.1084,-5.559082,153.0231,-18.55,-39.26667,13.79167,1
107080,0.07861328000000001,1.546875,-0.1367188,-44.98291,15.25879,-4.333496,99.38782,-2.823486,152.8583,12.08333,1.05,-0.05833333,1
107340,0.128418,0.9677734,-0.04980469,-8.056641,12.51221,-29.1748,95.75684,-3.504639,158.2581,27.60833,2.675,-0.6083333,1
107670,-0.07275391,0.8398437999999999,0.04150391,-4.577637,-19.83643,-6.469727,97.55859,-3.795776,159.6588,13.725,-0.31666669999999997,-1.816667,1
107940,-0.12744139999999998,1.17334,-0.2080078,40.40527,-8.972168,0.1831055,94.71863,-6.547852,155.7147,-19.64167,-38.875,14.39167,1
108210,0.07910156,1.056641,0.0004882813,-14.52637,36.56006,3.90625,97.6355,-4.702148,158.3954,13.31667,-0.35000000000000003,0.5916667,1
108490,0.1293945,0.9858397999999999,-0.06347656,4.699707,2.319336,-24.29199,96.5863,-4.191284,164.3115,23.96667,2.05,-5.4,1
108750,-0.07568359,0.8935546999999999,0.01367188,-1.220703,-21.91162,-8.605957,98.33862,-3.839722,163.9215,-21.59167,-38.00834,15.61667,1
109040,-0.0078125,1.068359,-0.2338867,28.13721,-14.22119,2.807617,95.64697,-5.707397,157.3242,-21.46667,-39.08333,14.45833,1
109370,0.1235352,0.8222655999999999,0.009765625,0.9765625,34.60693,15.13672,98.84399,-5.289917,159.6808,14.26667,-1.641667,-1.55,1
109710,0.16650389999999998,1.209961,-0.2822266,42.90771,17.45605,-2.502441,99.06921,-3.3673100000000002,166.6077,13.26667,4.283333,9.733334,1
109970,-0.05761719,0.8339844,-0.028808590000000002,-13.73291,-25.6958,-4.882813,98.93188,-1.9006349999999999,162.1637,13.29167,-2.766667,-3.258333,1
110340,-0.05224609,1.322754,0.006835938000000001,10.68115,-13.61084,-27.16064,99.25598,-2.856445,156.8463,-19.79167,-39.43333,15.71667,1
110620,0.08496094,0.7373046999999999,-0.028808590000000002,-12.02393,11.84082,8.911133,97.31689,-5.493164,159.9994,14.11667,-3.433333,-1.541667,1
110850,0.1708984,1.14502,-0.2900391,47.11914,6.652832,-0.24414059999999999,97.16309,-2.504883,162.0428,11.88333,4.066667,-3.916667,1
111060,-0.07080078000000001,0.7504883,-0.0009765625,-0.8544921999999999,-27.58789,-10.74219,99.21753,-2.318115,159.093,-19.425,-39.26667,16.20833,1
111300,-0.03662109,0.9477538999999999,-0.05566406,-23.49854,-11.23047,32.53174,96.45996,-4.290161,154.9182,21.95,-4.808333,1.8666669999999999,1
111580,0.1230469,0.9121094,0.07226563,-11.2915,37.78076,9.58252,99.17908,-3.180542,154.7864,-20.65,-38.90833,16.08333,1
111840,0.08984375,0.8027344,-0.1962891,-18.37158,23.92578,-16.8457,97.29492,-6.416016,160.2905,16.25,0.1083333,0.09166667,1
112080,0.2514648,1.532715,-0.1381836,43.64014,-10.86426,9.277344,100.2338,-4.916382,163.8062,-22.875,-38.09167,15.73333,1
112370,0.044921880000000004,0.8271484,-0.15039059999999999,-27.34375,-14.83154,25.5127,97.00928,-3.312378,156.8793,19.81667,-4.616667,3.758333,1
112690,0.03417969,1.541992,-0.1152344,1.159668,15.99121,-10.31494,99.86572,-3.257446,155.2863,-19.875,-37.825,16.25,1
112990,0.044921880000000004,0.8374022999999999,-0.1333008,-15.25879,7.873535,-33.08105,97.05322,-4.75708,162.3175,20.36667,-7.841667,6.3,1
113280,-0.184082,0.9594727,0.03125,-14.22119,-22.3999,-28.86963,99.54712,-3.652954,163.6633,-20.825,-37.8,15.55,1
113610,-0.07568359,0.9326171999999999,-0.07373047,-18.37158,-33.93555,21.05713,96.52039,-3.960571,157.4176,21.19167,-4.558333,2.941667,1
113930,0.22509769999999998,0.9511719,0.04003906,-4.638672,23.98682,12.20703,99.98657,-2.411499,154.4897,13.18333,-0.1166667,-0.8666667,1
115181,0.1030273,0.8007812999999999,-0.02929688,-10.31494,13.12256,8.178711,96.54785,-5.910645,156.0608,-20.3,-39.00834,13.78333,1
115460,0.1474609,1.083008,-0.4624023,57.31201,18.43262,-0.1831055,96.66321,-3.521118,159.7906,11.375,5.825,-4.391667,1
115770,-0.06396484,0.8388671999999999,-0.105957,-26.79443,-26.24512,8.666992,96.60278,-1.19751,155.083,-16.125,-40.39167,14.18333,1
116000,-0.04296875,1.306152,-0.22558589999999998,24.4751,-19.59229,0.42724609999999996,96.60278,-4.356079,151.4795,13.925,5.116667,6.9,1
116310,0.09521484000000001,0.7880859,0.024902340000000002,5.737305,15.93018,20.75195,96.93237,-5.657959,155.3137,-20.34167,-40.00834,14.13333,1
116580,-0.01025391,1.530273,-0.009765625,-14.22119,18.06641,11.23047,97.98157,-2.894897,158.4613,22.13333,-0.17500000000000002,6.141667,1
116870,-0.08740234,0.9501953,0.06982422,2.075195,-36.74316,-12.51221,97.4707,-2.861938,156.0059,14.7,-0.17500000000000002,-1.491667,1
117080,0.020996090000000002,0.7763671999999999,-0.16601559999999999,-20.93506,-36.13281,13.30566,94.49341,-1.604004,149.6613,16.33333,0.4666667,1.741667,1
117310,-0.07421875,1.261719,0.005859375,23.37646,-4.150391,-13.91602,98.00354,-2.971802,147.0081,-13.75833,-39.23333,16.51667,1
117550,0.1381836,0.7929687999999999,-0.002441406,-8.911133,20.38574,5.981445,96.85547,-5.674438,150.8148,14.84167,-2.983333,-2.358333,1
117810,0.1459961,1.058594,-0.1699219,32.71484,-2.380371,-12.08496,95.32837,-2.208252,153.501,17.28333,2.491667,-1.025,1
118070,-0.04248047,0.7880859,0.05712891,-7.995605,-18.18848,-8.911133,96.89941,-1.708374,151.0016,15.23333,-0.8833333,-2.391667,1
118320,-0.1201172,1.001953,-0.2045898,30.2124,-10.80322,1.159668,94.422,-4.608765,145.4865,-13.51667,-40.20833,14.79167,1
118610,0.10693359999999999,0.8950195,0.0234375,-1.098633,25.14648,13.85498,96.78406,-3.493652,147.6178,14.575,-0.3833333,-1.408333,1
118920,-0.05517578,0.8212891,-0.1137695,-12.57324,14.77051,-15.44189,94.33411,-4.746094,153.3527,16.74167,-1.6,1.5833329999999999,1
119200,0.0390625,1.297363,0.05224609,17.45605,-16.47949,0.793457,96.90491,-3.603516,154.4458,14.08333,1.166667,-0.85,1
119460,-0.01318359,0.8369141,-0.1401367,-17.08984,-17.45605,16.72363,94.1748,-1.5051269999999999,148.1177,16.81667,0.8250000000000001,1.908333,1
119800,-0.0004882813,1.067383,0.1318359,22.82715,-15.50293,-17.15088,98.12439,-3.411255,143.6847,15.866670000000001,1.35,-0.9416667,1
120050,0.11474609999999999,0.8115234,-0.1298828,-14.52637,10.13184,-19.71436,96.38855,-5.454712,145.7886,17.86667,-0.3083333,0.1083333,1
120390,-0.1342773,1.01416,0.2202148,43.21289,-5.004883,9.94873,97.92664,-2.301636,148.0682,18.11667,0.6666667,-1.116667,1
120601,-0.06152344,0.9106445,-0.05859375,-3.234863,-19.53125,-13.48877,97.50916,-0.302124,146.2115,14.79167,-2.091667,-2.966667,1
120810,-0.0390625,0.9370117,-0.02050781,-16.60156,-10.55908,32.89795,94.21875,-2.757568,143.2123,22.33333,-2.308333,2.266667,1
121050,0.2871094,0.9541016,0.06542969,-1.220703,27.83203,14.70947,98.09692,-3.526611,143.0859,15.29167,-0.625,-0.6666667,1
121350,0.03320313,0.9355469,-0.09326172,1.708984,0.6713867,-35.33936,95.99854,-3.131104,147.2772,-10.39167,-39.25834,16.1,1
121590,-0.3930664,1.102051,0.1606445,-5.493164,-39.55078,52.36816,97.78931,-0.5383300999999999,149.5184,19.43333,1.291667,-1.908333,1
121860,-0.01953125,0.8398437999999999,-0.08154297,-16.05225,-74.21875,7.8125,95.88318,2.406006,134.8352,15.43333,-0.6833332999999999,-0.225,1
122171,0.00390625,1.009277,0.1381836,24.4751,-86.54785,5.615234,99.12964,0.9393311,116.3507,7.425,-39.13334,10.71667,1
122420,0.1118164,0.8793945,-0.06201172,-7.446289,-44.55566,14.5874,99.4812,0.2416992,103.7714,14.64167,-2.033333,-2.508333,1
122700,0.26318359999999996,1.195801,-0.06396484,13.48877,-1.037598,-5.310059,97.42126,3.57605,94.54285,16.625,1.416667,5.525,1
122980,-0.06445313,0.9350586,-0.03271484,0.4882813,-39.79492,-6.774902,97.06421,4.685669,87.44019,18.05,-42.59167,0.1166667,1
123240,-0.03466797,0.9560546999999999,-0.15869139999999998,16.47949,-38.63525,0.06103516,95.3064,3.526611,74.87732,18.08333,-45.49166,-5.95,1
123540,-0.1762695,1.137207,0.06347656,24.04785,-47.9126,-8.239746,98.23975,4.037476,68.37341,16.35,0.15833329999999998,-0.875,1
123820,0.18994139999999998,0.8437500000000001,-0.07226563,-26.97754,-42.78564,-5.92041,93.98804,2.323608,55.01953,16.80833,-2.9,0.25,1
124080,-0.01806641,1.001465,0.1074219,-11.71875,-27.09961,4.577637,94.55933,4.855957,48.5321,20.15,-46.55,-20.10833,1
124400,-0.01269531,0.8994141,-0.1791992,-12.26807,-56.82373,9.887695,90.82397,6.026001,32.43164,15.91667,-0.875,0.4583333,1
124720,0.1362305,0.7939453,0.1396484,35.82764,-32.89795,-7.080078,92.7356,4.130859,19.42932,22.13333,-0.2333333,-2.15,1
124950,0.1479492,0.8725586,0.0,6.896973,-29.41895,25.57373,93.72437,2.087402,13.08472,14.975,-1.383333,-3.583333,1
125160,0.2958984,1.141602,-0.2241211,25.57373,-8.117676,-7.507324,92.15332,4.174805,5.405273,9.566667,-46.75834,-38.00834,1
125400,-0.13134769999999998,1.087402,0.01269531,-12.93945,-63.41553,-10.74219,92.4115,4.163818,0.1043701,14.6,-0.3833333,0.1916667,1
125640,-0.04589844,0.8784179999999999,-0.140625,-13.48877,-42.96875,9.765625,90.18127,6.470947,-10.85999,15.1,-1.508333,-0.35000000000000003,1
125850,0.2905273,0.7617187999999999,0.1533203,14.46533,-12.45117,-6.530762,92.67517,3.334351,-20.13794,27.28333,-2.9333329999999997,-1.575,1
126160,0.1411133,0.824707,-0.01171875,9.887695,-6.774902,26.00098,94.43298,1.071167,-23.02734,13.85833,-2.25,-3.316667,1
126390,0.2617188,1.443848,-0.2895508,14.09912,14.16016,5.7983400000000005,93.63647,2.735596,-25.14221,11.43333,3.533333,5.425,1
126650,-0.005371094000000001,0.8017578,-0.04980469,3.78418,-22.76611,-21.24023,93.35083,4.795532,-32.1405,-7.466667,-43.39167,-43.85,1
126960,-0.11279299999999999,0.9716796999999999,-0.020996090000000002,-17.08984,-27.70996,21.05713,91.50513,3.197021,-35.70007,21.925,-3.566667,0.1333333,1
127210,0.2260742,0.8891602,0.09130859,5.432129,13.42773,13.79395,93.76282,3.251953,-38.09509,13.80833,-0.525,-2.083333,1
127470,0.08837891,1.116211,-0.1708984,10.43701,-2.929688,-12.57324,92.21924,3.9935300000000002,-34.23889,11.425,2.5,-4.841667,1
127800,-0.03320313,1.258301,-0.004882813000000001,-48.0957,-34.11865,-15.19775,95.03723,1.680908,-36.58447,11.125,0.9083334,-0.06666667,1
128080,-0.1044922,1.289551,-0.1791992,13.3667,-37.96387,11.16943,91.48865,1.268921,-47.80151,-19.725,-38.3,-45.38334,1
128390,0.2246094,0.8828125,0.07275391,10.43701,44.6167,22.94922,94.35608,2.345581,-45.46692,13.675,-0.7833333,-0.1666667,1
128670,-0.3320313,1.353516,0.199707,-44.43359,0.6713867,28.86963,95.88318,0.8569336,-33.46436,31.25833,-2.091667,-2.866667,1
129020,-0.02685547,0.7583008,-0.08154297,-15.50293,-16.29639,6.652832,94.75159,4.235229,-37.41394,14.81667,-1.408333,-3.466667,1
129360,0.02734375,0.6762695,0.30224609999999996,70.98389,-1.159668,-20.81299,95.68542,2.37854,-39.56726,13.96667,2.741667,0.8666667,1
129570,0.1303711,0.8193359,-0.028808590000000002,-2.13623,35.21729,15.13672,96.75659,0.7800292999999999,-35.14526,11.741670000000001,-3.225,-2.025,1
129780,0.1113281,1.138672,-0.004882813000000001,-3.173828,16.29639,-27.40479,95.39429,3.279419,-29.9762,21.01667,0.7833333,-3.841667,1
129990,0.01171875,0.7011719,-0.011230470000000001,-11.16943,-31.92139,-28.56445,97.10815,3.718872,-35.04089,-11.41667,-40.80833,-43.675,1
130230,-0.026367190000000002,0.9228516,-0.10058589999999999,-17.7002,-19.53125,31.98242,95.68542,1.911621,-39.49585,22.01667,-4.608333,1.525,1
130550,0.3227539,0.949707,-0.017089840000000002,-0.9765625,30.70068,6.04248,99.38232,2.735596,-39.78699,13.14167,-0.8333332999999999,-1.358333,1
130830,0.16601559999999999,1.12207,-0.17822269999999998,15.86914,13.42773,-16.54053,97.4707,3.955078,-32.09656,19.325,5.35,-7.358333,1
132080,-0.26269529999999996,0.9052734,0.05761719,-15.19775,-19.16504,-25.75684,100.0525,0.5712891,-28.3667,-8.633333,-42.10833,-42.46667,1
132350,-0.015625,0.7739258,-0.1650391,-20.20264,-12.57324,20.32471,97.68494,2.905884,-31.00891,20.4,-1.85,2.858333,1
132630,0.05322266,1.627441,-0.07861328000000001,-15.50293,19.59229,-13.3667,100.7666,2.493896,-31.30005,-8.833333,-42.73333,-42.61666,1
132890,0.09472656,1.107422,-0.002441406,-15.50293,14.52637,-28.19824,98.22327,1.060181,-24.87854,-5.941667,-41.925,-43.10833,1
133200,-0.08886719,1.057617,0.1362305,15.99121,-21.30127,-8.300781,98.49243,1.09314,-26.15845,12.66667,0.775,-3.058333,1
133470,-0.03710938,0.8881836,-0.1318359,-21.42334,-7.507324,22.70508,95.89417,3.565063,-30.39368,23.95833,-4.85,4.116667,1
133780,0.06103516,1.191895,-0.03417969,-42.17529,43.09082,7.995605,99.67346,3.251953,-30.70679,13.18333,0.2833333,2.891667,1
134060,0.08544922,1.105469,-0.05322266,2.380371,19.28711,-27.64893,97.91016,1.098633,-21.5387,27.13333,-0.09166667,-4.058333,1
134340,-0.03515625,0.8642578,0.01220703,-7.69043,-33.69141,-24.71924,98.86597,2.768555,-23.6261,12.64167,-1.033333,-1.591667,1
134730,-0.0004882813,1.185059,-0.12402339999999999,40.95459,-5.432129,-2.319336,96.69617,1.94458,-29.70154,19.18333,5.758333,-1.533333,1
134960,0.15917969999999998,0.7988280999999999,-0.009765625,12.87842,17.45605,11.53564,99.17908,1.235962,-29.5752,13.75,-1.383333,-2.025,1
135240,0.2851563,1.347168,-0.48291019999999996,49.25537,20.75195,-0.42724609999999996,99.8877,1.098633,-22.97241,-4.408333,-42.64167,-44.46667,1
135560,-0.01416016,0.7412109,-0.006835938000000001,-4.394531,-31.79932,-17.33398,98.41553,3.900146,-28.30078,14.33333,-4.075,-1.183333,1
135930,0.12402339999999999,1.370117,-0.1044922,4.943848,-27.16064,-3.967285,98.21228,2.27417,-35.07385,18.75,2.208333,5.916667,1
136160,0.1157227,0.7944336,-0.03515625,-14.5874,18.55469,17.15088,100.0415,0.4779053,-31.19568,13.51667,-3.2,-2.116667,1
136450,0.1723633,1.161621,-0.22119139999999998,29.05273,15.56396,-5.249023,99.34387,2.04895,-27.12524,17.525,5.658333,-8.658334,1
136670,0.01806641,0.7792969,0.03515625,3.051758,-23.86475,-10.92529,98.58582,3.674927,-28.119510000000002,13.59167,-0.8583333999999999,-1.091667,1
136940,-0.1362305,1.228516,-0.1850586,27.771,-2.319336,2.685547,97.8717,1.549072,-29.69604,19.01667,2.958333,0.5583332999999999,1
137260,-0.06445313,1.526855,-0.0546875,24.78027,7.751465,-18.43262,100.9753,3.317871,-28.4436,14.28333,-0.6416666999999999,1.175,1
137500,0.10693359999999999,0.9824219,0.007324219000000001,-16.72363,5.737305,-27.58789,98.41553,0.2197266,-24.43359,25.825,-6.225,4.108333,1
137750,-0.2954102,0.9086913999999999,0.109375,-14.28223,-33.81348,-27.58789,99.93164,1.378784,-23.23059,14.53333,-0.625,0.08333334,1
138060,0.01318359,0.9418945,-0.02832031,-18.31055,-10.19287,25.26855,96.52039,1.94458,-27.84485,-12.61667,-39.175,-46.775,1
138350,0.11279299999999999,0.8808594,0.1000977,-15.93018,32.34863,6.164551,98.97583,3.158569,-25.6311,14.825,-0.8250000000000001,0.30000000000000004,1
138670,0.06884766,1.043945,0.03466797,24.78027,7.629395,-13.24463,97.66296,1.834717,-18.7207,-6.641667,-40.275,-43.45833,1
138980,0.05078125,0.8022461,0.04296875,-9.216309,-31.92139,-21.05713,99.17358,2.197266,-21.43982,13.40833,-0.65,-0.925,1
139310,-0.01025391,1.225586,-0.07324219,29.72412,-3.90625,-1.708984,97.27844,1.477661,-25.80688,18.91667,4.016667,-0.44166669999999997,1
139620,0.10693359999999999,0.8310546999999999,0.01953125,3.4790039999999998,35.40039,22.82715,99.38232,1.3348389999999999,-22.46155,13.675,-0.975,-1.558333,1
139880,0.10693359999999999,0.8310546999999999,0.01953125,3.4790039999999998,35.40039,22.82715,99.38232,1.3348389999999999,-22.46155,21.26667,-7.466667,6.608333,1
140090,0.1708984,1.411133,-0.01025391,-6.04248,-33.5083,-14.28223,100.2777,0.6097412,-18.00659,13.54167,0.3833333,0.125,1
140340,-0.09960938,0.8374022999999999,-0.05322266,-15.01465,-12.20703,5.859375,98.16284,4.279175,-21.78589,14.84167,-0.8916666,-3.825,1
140580,0.2773438,0.6313477,0.2104492,8.422852,8.056641,-3.173828,97.83875,2.8125,-25.70801,22.075,-0.075,-2.566667,1
140850,0.1157227,0.8017578,0.01074219,18.67676,27.52686,13.91602,98.73962,0.9997558999999999,-19.84131,13.525,-2.225,-1.725,1
141090,0.2807617,1.543457,-0.2182617,-0.24414059999999999,34.91211,9.033203,101.1072,1.439209,-12.65076,3.191667,-43.59167,-40.45833,1
141360,-0.1621094,0.921875,-0.01171875,-12.08496,-35.33936,-21.11816,99.39331,0.7305908,-12.50244,14.91667,-1.008333,0.5750000000000001,1
141600,-0.1035156,1.00293,-0.008300781,-29.29688,-22.94922,22.2168,94.99329,2.164307,-18.08899,25.43333,-3.691667,1.4,1
141910,0.1259766,0.9721679999999999,0.1420898,-19.83643,32.89795,10.13184,96.78406,2.015991,-17.80884,15.325,0.5666667,1.258333,1
142170,0.0078125,1.185547,-0.1181641,17.57813,13.61084,-18.79883,96.28418,0.8349609,-11.21704,2.908333,-42.10833,-42.55833,1
142470,0.1420898,1.503418,-0.07226563,22.88818,-21.91162,8.483887,99.16809,0.04394531,-11.04126,13.33333,0.6583333,0.025,1
142720,-0.04394531,0.7993163999999999,-0.07421875,-7.507324,-16.96777,-7.568359,96.96533,4.630737,-15.97961,14.48333,-0.2583333,-3.583333,1
142960,0.36523439999999996,0.6669921999999999,0.2993164,9.58252,-3.051758,-10.74219,97.48718,2.208252,-18.24829,14.8,2.033333,-2.641667,1
143220,0.0546875,0.7226562999999999,-0.18164059999999999,-12.87842,30.27344,-20.99609,96.62476,0.5987549,-11.70593,5.525,-39.03333,-42.8,1
143550,0.1474609,1.641602,-0.09033203000000001,15.50293,-44.67773,12.3291,99.18457,1.9885249999999999,-12.12891,12.56667,1.525,-0.325,1
143860,0.15869139999999998,0.8813477,-0.06396484,-37.35352,-11.2915,17.7002,94.91638,4.993286,-22.78564,22.125,-5.941667,2.958333,1
144090,0.4550781,1.049805,0.28125,-1.464844,9.70459,-12.39014,94.84497,3.691406,-26.0376,28.08333,-3.841667,4.0,1
144310,0.1918945,0.8740234,-0.1025391,-7.8125,11.71875,0.12207029999999999,97.97058,0.6262207,-23.88428,-1.216667,-38.45833,-45.45,1
144540,0.2587891,1.5200200000000001,-0.265625,14.03809,25.14648,2.319336,99.5636,2.839966,-20.45654,15.50833,3.666667,7.691667,1
144780,-0.11865229999999999,0.9394530999999999,0.02001953,-10.49805,-33.99658,-21.97266,97.73438,2.9168700000000003,-22.70325,14.00833,-0.4166667,-0.5416667,1
144990,-0.09667969,0.9980469,0.01757813,-1.7700200000000001,-1.6479489999999999,26.36719,95.10315,2.158813,-25.80139,25.45833,-1.766667,1.158333,1
145310,0.1176758,0.871582,0.04003906,-9.82666,28.19824,20.93506,98.1189,3.619995,-26.33423,-3.958333,-40.175,-47.09167,1
145580,0.1333008,1.091797,-0.07763672,9.033203,2.502441,-6.347656,96.09741,2.713623,-22.48352,23.8,2.141667,-8.0,1
145920,0.03222656,0.8193359,0.02685547,-1.403809,-14.03809,-20.56885,97.19055,3.922119,-23.2196,-2.425,-41.525,-46.375,1
146230,-0.13525389999999998,1.241211,-0.15820309999999999,21.11816,-0.1831055,4.272461,94.75159,2.438965,-22.901,18.89167,3.725,0.125,1
146520,0.09130859,0.8002929999999999,0.01171875,6.713867,21.78955,21.85059,97.33337,1.972046,-20.94543,-3.466667,-43.25,-44.35,1
146830,0.3920898,1.311035,-0.5400391,47.24121,14.28223,1.342773,98.69019,2.554321,-18.3252,7.391667,5.266667,0.5750000000000001,1
147150,-0.01464844,0.7368163999999999,0.0004882813,3.4790039999999998,-15.86914,-14.22119,97.21802,4.526367,-20.90698,14.25,-2.391667,-1.433333,1
147440,-0.1401367,1.390625,-0.3046875,4.943848,-28.9917,10.13184,96.00952,2.235718,-25.08179,9.425,4.308333,6.108333,1
147790,0.08837891,0.8735352,-0.05126953,8.483887,13.5498,25.87891,97.81128,1.071167,-19.78088,-2.6,-43.1,-44.45,1
148070,-0.2832031,1.635742,0.1889648,-56.57959,15.50293,14.77051,98.50342,1.560059,-16.71021,24.95833,-2.516667,3.05,1
148410,-0.026367190000000002,0.8378905999999999,-0.08447266,-28.13721,-6.469727,22.33887,94.88892,3.619995,-20.53345,-2.725,-40.35,-47.68333,1
149760,-0.0034179690000000003,0.9580078,0.05517578,-7.263184,-17.08984,16.78467,93.21899,2.752075,-21.41235,24.00833,-1.7,1.3333329999999999,1
149970,0.07763672,0.8500977,0.01416016,3.051758,27.16064,18.9209,96.79504,3.109131,-20.62134,12.40833,-0.55,-1.5833329999999999,1
150210,0.07421875,0.8208008,-0.15820309999999999,-17.27295,17.45605,-20.93506,95.85571,1.010742,-16.86401,20.44167,-6.416667,6.733333,1
150420,0.18652339999999998,1.435547,0.03466797,-26.55029,-24.90234,-9.58252,98.3551,2.021484,-16.13892,2.141667,-45.19167,-44.075,1
150660,-0.07177734,0.8007812999999999,-0.03662109,-15.93018,-10.68115,3.723145,94.61426,5.377808,-20.19836,14.34167,-0.8833333,-3.266667,1
150920,-0.19384769999999998,1.443848,-0.3691406,19.04297,-13.18359,-0.6103516,94.15283,2.384033,-21.19812,9.966666,4.241667,2.4,1
151130,0.07617188,1.21875,0.00390625,-15.625,30.70068,19.71436,95.98206,3.806763,-19.64355,14.16667,0.1916667,2.075,1
151370,0.17822269999999998,1.079102,-0.009277344,2.441406,2.746582,-26.55029,93.92761,1.411743,-16.39709,28.50833,0.6416666999999999,-2.341667,1
151630,0.056640630000000004,1.411133,-0.06201172,62.74414,5.187988,17.45605,97.80579,1.148071,-14.74915,14.375,1.1,-0.8416665999999999,1
151860,0.05078125,0.7827147999999999,-0.18945309999999999,-16.78467,-23.68164,18.24951,93.75732,4.185791,-22.1759,20.29167,-2.625,3.875,1
152190,-0.0034179690000000003,1.639648,-0.09423828000000001,26.30615,19.104,-2.380371,97.65198,4.334106,-24.26331,13.26667,0.05,0.9666665999999999,1
152461,-0.0004882813,0.9487304999999999,-0.048828130000000004,-23.13232,18.24951,-27.771,94.61426,1.620483,-16.43555,21.6,-8.983334,8.283334,1
152790,-0.09667969,1.046875,0.08105469,-27.16064,-18.85986,-28.80859,96.63574,3.762817,-15.07324,13.25,0.375,-0.225,1
153130,-0.05761719,0.9633788999999999,0.03857422,-15.01465,-4.455566,24.29199,92.90588,3.2958979999999998,-18.42407,24.43333,-3.475,3.208333,1
153440,0.07226563,0.9824219,0.07421875,-9.94873,36.9873,16.11328,96.38306,3.548584,-18.97888,14.4,-1.008333,-0.008333334000000001,1
153710,0.140625,0.9628905999999999,-0.024902340000000002,15.07568,-5.493164,-18.9209,95.15808,2.246704,-16.49048,25.46667,0.2333333,-2.916667,1
154050,-0.02294922,0.7475586,-0.05322266,-13.18359,5.7983400000000005,-11.53564,96.92688,5.41626,-16.28723,15.63333,-1.5,-2.033333,1
154331,-0.2993164,1.191895,-0.47363279999999996,28.56445,-11.47461,2.807617,96.97083,1.96106,-15.10071,15.44167,4.0,-0.7666666999999999,1
154560,0.2670898,1.3979489999999999,-0.06103516,-29.90723,20.56885,13.61084,100.2557,4.119873,-18.55042,13.68333,0.35833329999999997,0.6583333,1
154770,0.1171875,0.8305663999999999,-0.12744139999999998,-6.591797,7.873535,-3.4790039999999998,98.64624,-0.4504395,-14.19983,16.46667,-1.133333,-1.441667,1
154980,-0.04589844,0.5024413999999999,0.1875,40.77148,-2.685547,-14.4043,97.77832,1.318359,-12.14539,19.21667,0.025,-2.541667,1
155250,0.001953125,0.8510742,-0.030273440000000002,0.5493163999999999,-16.8457,-13.30566,97.83325,3.938599,-15.72693,14.0,-2.216667,-3.125,1
155530,-0.0625,1.456543,-0.1870117,17.33398,-27.28271,4.943848,96.80054,2.021484,-18.64929,15.53333,4.916667,4.633333,1
155780,0.07275391,0.8881836,-0.060546880000000004,-3.356934,26.7334,20.62988,98.1134,0.6536865,-13.65601,-1.216667,-41.81667,-44.39167,1
156070,0.05761719,1.6845700000000001,-0.006347656,-28.32031,26.7334,4.638672,99.83826,1.576538,-10.43152,1.575,-41.38334,-44.19167,1
156320,-0.02783203,0.9199219,0.04833984,-8.056641,-28.32031,-20.50781,98.55286,3.131104,-11.27197,14.9,-0.5666667,-2.216667,1
156600,-0.020996090000000002,0.8330078,-0.1074219,-22.94922,-11.65771,16.78467,95.39429,4.614258,-14.44153,16.58333,0.55,1.441667,1
156840,0.105957,1.09375,0.1254883,11.35254,-11.23047,-15.99121,98.74512,3.081665,-15.78735,14.575,0.008333334000000001,-2.258333,1
157080,0.08935547,0.8193359,-0.19042969999999998,-13.12256,20.87402,-28.86963,96.55334,1.290894,-16.18286,18.53333,-5.108333,7.058333,1
157410,-0.3588867,0.7421875,0.1835938,-40.03906,12.69531,-7.69043,97.98706,1.972046,-12.83752,22.29167,0.5166666999999999,-0.5333333,1
157660,-0.1303711,0.8574219,-0.04638672,-11.04736,7.507324,5.981445,97.05872,4.53186,-12.39258,15.825,-2.075,-2.825,1
157920,0.265625,1.075195,0.1025391,-9.521484,7.324219,-13.18359,97.77283,3.12561,-12.62878,1.108333,-43.10833,-45.6,1
158240,0.09277344,0.7929687999999999,-0.07275391,-11.59668,8.544922,12.08496,97.37183,0.1757813,-10.047,13.625,-2.691667,-2.733333,1
158560,-0.4692383,1.129883,0.2719727,-42.23633,7.019043,4.699707,97.43774,1.241455,-5.273438,22.43333,0.55,-1.258333,1
158780,0.07275391,0.8032227,0.06494141,-4.516602,-18.73779,-12.146,97.70691,3.433228,-7.7948,14.23333,-0.5333333,-1.691667,1
159060,-0.1201172,1.063965,-0.105957,29.29688,-2.868652,0.9155272999999999,95.59204,1.7028809999999999,-11.41479,20.2,3.541667,-0.6083333,1
159270,-0.08349609,1.294434,0.04248047,30.57861,-0.9765625,-23.4375,98.91541,3.394775,-13.13965,14.10833,0.5666667,0.7166667,1
159491,0.08105469,0.9306641,-0.08789063,-12.08496,0.3051758,-29.96826,97.76733,-0.027465820000000002,-8.190308,2.816667,-44.5,-44.43333,1
159730,-0.4150391,0.5,0.3129883,-13.24463,-6.286621,-5.7983400000000005,98.06946,1.400757,-6.751099,4.366667,-45.50834,-42.725,1
159970,0.008789063,0.8076171999999999,-0.01220703,-2.624512,-25.75684,-20.87402,99.43726,4.312134,-10.40405,14.33333,-2.7,-2.083333,1
160230,-0.3320313,1.420898,-0.36523439999999996,16.54053,-30.09033,8.117676,98.84949,1.6149900000000001,-11.99158,10.25,3.883333,1.916667,1
160500,0.1484375,0.8901367,-0.06689453000000001,16.41846,38.57422,25.5127,99.76685,0.7196045,-10.41504,1.85,-46.08333,-43.01667,1
160790,0.08837891,0.9804687999999999,0.06152344,-15.38086,8.300781,-31.92139,98.28918,0.5493163999999999,-4.075928,31.71667,0.35000000000000003,-0.3916667,1
161040,-0.08447266,1.2470700000000001,0.07617188,-2.502441,19.40918,10.0708,100.9039,-0.09338379000000001,-0.9283446999999999,13.3,1.266667,-2.333333,1
161290,-0.024902340000000002,0.8388671999999999,-0.121582,-12.75635,34.30176,12.87842,96.99829,2.27417,1.6479489999999999,18.54167,-0.5750000000000001,0.9500000000000001,1
161520,-0.2197266,1.212402,-0.01318359,41.74805,33.87451,-18.31055,99.48669,-0.5328369,7.091675,10.55,-45.75,-37.96667,1
161810,-0.01074219,0.8061522999999999,-0.1201172,-23.19336,26.79443,-17.08984,97.34985,-4.081421,19.56665,14.175,-45.38334,-35.03333,1
162120,0.2792969,1.623047,-0.1362305,6.530762,-5.981445,-4.821777,100.5249,-2.032471,22.29126,16.46667,-45.225,-31.99167,1
162410,-0.08544922,0.8217772999999999,-0.01660156,-11.04736,-7.080078,-2.441406,98.32214,2.241211,19.51172,15.03333,-1.983333,-2.783333,1
162720,0.21435549999999998,1.209961,-0.06787109,-20.1416,20.20264,11.53564,101.3324,0.8074950999999999,16.77063,14.675,-45.975,-32.51667,1
162990,0.2807617,0.8476562999999999,-0.1850586,-20.32471,-2.13623,-8.422852,99.3988,-2.356567,16.36963,16.875,0.5750000000000001,-0.05833333,1
163240,0.07373047,1.19873,0.05078125,46.02051,25.5127,4.699707,101.1786,-0.8953857,17.68799,14.90833,-45.61666,-32.60833,1
163470,-0.1367188,0.7080078,0.01367188,-18.73779,-15.80811,-9.643555,97.91016,3.416748,15.68848,13.73333,-2.216667,-2.341667,1
163730,0.1708984,1.346191,0.04785156,3.417969,-9.399414,-12.08496,98.3551,0.0769043,12.09045,18.21667,1.816667,2.066667,1
164040,0.09863281,0.7495117,-0.048828130000000004,-26.12305,28.25928,16.60156,98.20679,-3.081665,17.16064,12.66667,-46.20833,-33.91667,1
164300,0.0625,1.05127,-0.2421875,43.396,2.380371,-3.78418,97.49268000000001,-1.005249,21.25854,16.24167,5.466667,-6.241667,1
164540,0.02148438,0.7133788999999999,0.07470703000000001,-0.793457,-13.3667,-16.8457,98.47046,1.483154,20.780640000000002,13.866670000000001,-0.5,-0.85,1
164850,-0.09472656,1.228027,-0.2080078,23.25439,-13.73291,3.662109,96.88843,-0.7855225,18.18787,14.94167,-44.96667,-33.75834,1
165210,0.1518555,0.7338867,-0.030273440000000002,-15.01465,23.13232,11.16943,99.04175,-2.796021,22.82959,13.40833,-3.108333,-2.191667,1
166470,0.08300781,1.092285,-0.08007813,12.08496,8.789063,-10.86426,97.80579,-0.5493163999999999,23.23608,15.55,-45.125,-29.175,1
166760,0.0,0.7851562999999999,0.015136720000000001,-5.249023,-29.72412,-17.82227,99.7998,1.09314,22.34619,16.14167,-44.33333,-29.63333,1
167040,0.06933594,0.7895508,-0.08398438,-20.93506,0.24414059999999999,31.55518,96.828,0.9008788999999999,19.66553,24.49167,-4.525,2.6,1
167270,0.04833984,0.7602538999999999,0.2392578,41.44287,-20.26367,-13.42773,99.33838,0.8953857,18.9624,15.61667,1.85,-3.133333,1
167520,0.21289059999999999,0.7861328,-0.1928711,-26.61133,4.760742,-14.95361,96.69067,-2.202759,21.68701,18.975,-0.6833332999999999,0.725,1
167770,0.20507809999999999,1.765137,-0.29394529999999996,24.96338,-0.7324219,3.417969,100.1019,-0.4284668,23.40637,16.26667,-44.375,-28.2,1
168050,0.04296875,0.8364258,-0.09375000000000001,-23.86475,-9.277344,19.9585,95.19653,2.081909,18.35815,15.45833,-44.0,-32.575,1
168410,0.2539063,0.9345703,0.08935547,-21.72852,18.61572,25.81787,100.8215,1.428223,18.46252,13.825,-0.7416667,-0.9333332999999999,1
168650,0.140625,0.6801758,-0.15869139999999998,-30.45654,15.56396,-19.65332,98.46497,-1.71936,21.7749,17.95,0.8083332999999999,-0.225,1
168860,-0.0009765625,1.519043,-0.15136719999999998,30.45654,-0.42724609999999996,21.48438,101.4532,-0.7745361,25.64758,18.375,-44.94167,-26.29167,1
169110,-0.07568359,0.8056641,-0.07617188,-17.02881,-20.81299,-3.601074,98.70117,3.433228,21.57166,13.975,-2.191667,-3.883333,1
169350,-0.01220703,1.169922,-0.22119139999999998,35.33936,-4.516602,-8.666992,97.35535,0.5822754,17.4353,15.7,2.258333,-1.825,1
169560,0.1079102,0.7768554999999999,0.02978516,5.371094,14.83154,22.09473,99.77783,-0.736084,21.09924,16.14167,-45.70833,-29.1,1
169820,-0.01318359,1.058105,-0.06689453000000001,-2.258301,-6.9580079999999995,-31.61621,97.11914,-0.269165,24.56543,24.06667,-3.825,3.966667,1
170080,0.09033203000000001,1.208008,0.11621089999999999,119.6899,7.873535,13.24463,100.9534,-0.1483154,24.104,15.54167,0.6833332999999999,-0.2666667,1
170300,0.011230470000000001,0.7978516,-0.14697269999999998,-29.41895,-15.74707,22.46094,96.77856,2.614746,18.78662,18.85833,-0.3416667,2.383333,1
170580,-0.05712891,1.617188,-0.09716797,7.995605,13.79395,-6.713867,98.30017,2.548828,17.1167,17.325,-44.175,-31.86667,1
170850,0.1479492,0.8051758,-0.04541016,-8.728026999999999,23.98682,1.8310549999999999,96.81152,-1.367798,21.63208,15.46667,-2.45,-1.891667,1
171120,-0.08203125,0.3994141,0.2773438,7.019043,5.432129,-16.29639,97.32788,-0.04943848,26.32874,19.45,-44.88334,-25.44167,1
171410,-0.03222656,0.8300780999999999,-0.1210938,-18.55469,-8.789063,13.67188,97.10266,2.779541,22.53845,16.21667,-0.6000000000000001,-1.358333,1
171711,0.06445313,0.8588867,0.27099609999999996,70.61768000000001,5.004883,-22.33887,97.7179,1.115112,19.4458,14.55,2.408333,0.075,1
172010,0.09179688,0.7226562999999999,-0.159668,-22.82715,23.68164,-13.30566,97.43774,-1.499634,26.94397,18.1,0.2916667,-0.7333333,1
172340,0.0859375,1.666504,-0.22851559999999999,59.38721,-4.211426,18.98193,100.0909,-0.2142334,29.4873,14.5,-0.03333333,-0.5833332999999999,1
172610,0.03466797,0.8251953,-0.06738281,-27.70996,-10.19287,24.71924,96.87195,2.191772,22.186890000000002,20.65833,-3.783333,5.733333,1
172980,0.05419922,0.8334961,-0.01464844,12.146,27.64893,20.93506,100.5524,0.1483154,22.34619,17.24167,-44.75,-26.95,1
173220,0.01855469,0.9628905999999999,-0.04443359,-21.97266,4.760742,-35.09521,97.99805,0.5493163999999999,26.16394,24.15833,-6.708333,7.783333,1
173520,-0.2353516,0.9765625,0.05859375,-8.239746,-44.67773,-20.81299,99.92065,2.032471,23.2251,19.43333,-43.35,-27.35833,1
173790,-0.02001953,1.047363,0.005859375,25.39063,-22.70508,7.568359,96.16333,1.549072,13.91418,15.89167,-44.2,-32.49166,1
174020,-0.13476559999999999,1.453613,-0.01806641,33.5083,-36.19385,-27.28271,100.7611,3.872681,10.57434,13.46667,-0.03333333,-0.1083333,1
174310,0.07275391,0.8134766,-0.08056641,-18.43262,16.8457,9.338379,99.01978,-0.38452149999999996,11.65649,13.69167,-3.083333,-2.508333,1
174540,-0.45898439999999996,0.8886719,0.3056641,-47.48535,10.13184,-3.662109,97.61353,1.6149900000000001,16.51245,27.30833,-1.183333,-2.716667,1
174800,-0.041015630000000004,0.8271484,-0.09228516,-19.28711,3.4790039999999998,10.74219,97.62451,4.152832,14.80408,19.75,-44.2,-31.69167,1
175070,-0.1640625,1.374023,-0.23681639999999998,13.85498,-34.30176,3.234863,98.05298,1.307373,13.43628,14.71667,5.341667,9.058333,1
175330,0.1201172,0.8193359,-0.05566406,-8.850098,24.16992,12.93945,99.74487,-0.2801514,14.74365,17.81667,-46.85833,-30.125,1
175590,-0.028808590000000002,1.008301,-0.203125,37.04834,-0.24414059999999999,-4.638672,98.80005,1.966553,18.40759,11.866670000000001,2.083333,-8.008333,1
175850,0.0390625,0.7255859,0.020996090000000002,-2.441406,-20.1416,-17.82227,99.28345,3.565063,14.84253,13.10833,-1.491667,-1.641667,1
176140,-0.10107419999999999,1.378418,-0.22900389999999998,6.713867,-29.29688,10.74219,97.67395,1.713867,10.23926,17.50833,-45.64167,-36.55833,1
176470,0.1137695,0.7939453,-0.01171875,-8.239746,33.87451,11.65771,98.84949,-0.1483154,17.04529,12.76667,-3.691667,-0.8250000000000001,1
176780,-0.425293,1.019043,0.4389648,-50.78125,6.347656,10.98633,99.30542,0.4284668,23.49976,28.20833,-1.7,-5.441667,1
177060,-0.05078125,0.7724609,-0.08154297,-21.78955,-17.51709,10.92529,98.39905,3.532104,19.18213,16.29167,-0.5083333,-2.291667,1
177460,0.3129883,0.8613280999999999,0.1577148,-10.49805,39.67285,18.31055,99.52515,2.521362,16.25427,18.85,-46.24166,-30.53333,1
177680,0.1196289,0.7651367,-0.1855469,-20.08057,22.52197,-17.45605,98.4375,-0.4394531,22.28577,16.13333,-0.2333333,-0.15,1
177940,-0.1464844,1.508301,0.3388672,-48.88916,4.333496,14.70947,100.1624,1.862183,25.00488,31.525,-3.458333,2.441667,1
178150,-0.06835938,0.7612304999999999,-0.005859375,-20.93506,-23.92578,-1.8310549999999999,98.10242,4.356079,19.33044,19.80833,-43.81667,-31.74167,1
178380,-0.1933594,1.1845700000000001,-0.30224609999999996,29.47998,-7.263184,3.417969,96.71814,0.8898925999999999,16.80359,20.30833,4.55,0.5416667,1
178630,0.05859375,0.8437500000000001,0.0078125,9.460449,25.75684,15.07568,99.49768,0.4174805,18.0835,16.05833,-45.89167,-30.125,1
178870,0.024902340000000002,0.9389647999999999,-0.09277344,-18.98193,9.82666,-27.52686,96.81152,0.4998779,22.1814,22.05,-4.891667,7.658333,1
179160,-0.3276367,1.01416,0.060546880000000004,-4.211426,-35.7666,-17.76123,100.3876,1.115112,23.58765,18.59167,-44.26667,-27.83333,1
179450,-0.03613281,0.9189453,0.01855469,1.7700200000000001,-9.82666,19.9585,96.74011,0.8898925999999999,17.47925,25.05,0.775,1.05,1
179760,0.11083979999999999,0.8481445,0.02783203,-3.173828,27.83203,24.90234,99.32739,0.6646729,17.15515,14.98333,-45.96667,-30.56667,1
180100,0.08642578000000001,1.034668,-0.2607422,41.50391,0.4882813,-6.835938,97.32239,1.697388,20.96191,12.65833,4.341667,-9.483334,1
180391,0.046875,0.8012695,-0.01074219,1.708984,-21.24023,-17.8833,99.51416,3.427734,18.39661,12.98333,-1.166667,-2.266667,1
180670,-0.07519531,1.365723,-0.137207,7.568359,-35.70557,14.5874,98.40454,1.049194,12.58484,14.475,-46.09167,-34.23333,1
180950,0.05957031,0.7255859,-0.0234375,-27.40479,28.93066,11.2915,99.75037,-0.3570557,14.28772,14.61667,-47.18333,-31.89167,1
181260,-0.246582,1.44873,0.2773438,-53.52783,6.469727,14.52637,98.56384,0.7745361,22.07153,18.45833,-46.025,-29.675,1
181560,0.04980469,0.8540038999999999,0.02148438,-7.446289,-32.40967,-18.37158,98.48694,3.169556,18.94043,11.16667,0.06666667,-2.066667,1
181820,-0.19775389999999998,1.342285,-0.17871089999999998,10.49805,-27.83203,9.643555,95.60852,2.25769,12.4585,12.1,5.375,7.966667,1
182130,0.14306639999999998,0.8046875,-0.009277344,-5.126953,26.67236,19.04297,98.38257,-0.027465820000000002,14.39758,12.875,-3.0,-3.133333,1
182380,-0.3862305,1.167969,0.25,-47.42432,4.760742,16.60156,98.21777,0.8789062999999999,19.74792,17.93333,-46.65,-29.91667,1
183600,0.2827148,1.876465,-0.12402339999999999,-36.19385,-18.00537,-2.563477,100.5029,-0.5108642999999999,21.12122,18.54167,-47.13334,-28.36667,1
183830,-0.04345703,0.7954102,-0.08496094,-16.11328,-8.239746,6.347656,96.23474,3.872681,17.08374,13.95,-1.191667,-2.283333,1
184050,-0.1264648,1.347168,-0.2958984,14.34326,-23.01025,-3.2958979999999998,96.87195,-0.01098633,15.41382,13.4,5.35,8.133333,1
184260,0.07958984,0.7939453,-0.05126953,0.8544921999999999,36.9873,9.765625,98.58582,-0.7141113,22.99988,18.475,-47.825,-26.175,1
184510,0.11279299999999999,1.135742,-0.1044922,23.92578,8.361816,-8.605957,98.21777,1.73584,26.713260000000002,20.95,-46.50834,-24.15,1
184810,0.09375000000000001,1.865234,-0.05712891,-10.98633,-46.63086,4.211426,101.4423,0.14282229999999999,25.92224,13.50833,0.04166667,-1.083333,1
185030,0.12402339999999999,0.8066405999999999,-0.015136720000000001,-20.44678,-24.10889,25.57373,95.00427,2.076416,13.24402,25.45,-7.191667,1.216667,1
185270,0.2587891,0.9638671999999999,0.1298828,-38.63525,52.49023,23.80371,98.44849,1.867676,15.23254,17.29167,-47.49166,-29.85,1
185570,0.1699219,0.7416992,-0.15087889999999998,-19.59229,20.81299,-8.361816,96.13037,-1.999512,21.698,18.83333,-0.49166669999999996,-0.1,1
185820,0.1435547,1.746094,-0.21875000000000003,74.46289,1.525879,22.15576,100.6622,-0.6701659999999999,23.53271,13.49167,0.3916667,-1.016667,1
186090,0.07226563,0.8071288999999999,-0.02783203,-26.48926,-2.807617,31.92139,95.78979,0.45593259999999997,18.13843,23.68333,-6.308333,5.558333,1
186450,0.2265625,0.8491211,0.02832031,3.967285,16.60156,18.98193,100.5359,1.340332,19.54468,12.70833,-0.6083333,-2.35,1
186700,0.09521484000000001,1.124023,-0.13134769999999998,26.48926,3.356934,-3.662109,98.33862,2.340088,22.56592,20.95833,-46.45,-27.14167,1
187010,0.09277344,0.7836913999999999,0.03613281,-5.126953,-39.0625,-15.80811,98.3551,3.356323,18.34717,20.40833,-45.56667,-31.43333,1
187350,-0.21728519999999998,1.35791,-0.2768555,8.300781,-35.21729,12.63428,96.93787,1.977539,11.72241,13.35,5.966667,10.19167,1
187580,0.199707,0.8212891,0.15478519999999998,5.67627,30.33447,30.57861,98.47595,2.911377,12.09595,12.89167,-0.2666667,-2.358333,1
187800,0.137207,0.6904296999999999,-0.1518555,-28.68652,17.02881,-17.76123,96.44897,-0.9558105,14.79858,18.725,-1.366667,3.358333,1
188004,0.06835938,1.629883,-0.0034179690000000003,-1.586914,-20.26367,6.896973,99.5636,0.6921387,16.75415,17.46667,-46.975,-31.2,1
188250,-0.02832031,0.7993163999999999,-0.06201172,-15.80811,-2.990723,4.699707,97.42676,4.070435,14.03503,15.33333,-1.758333,-4.25,1
188480,0.3359375,0.6884766,0.27099609999999996,-0.42724609999999996,-3.051758,-22.46094,97.03674,1.307373,13.47473,16.49167,-46.90833,-33.18333,1
188760,0.08691406,0.8457030999999999,0.005859375,3.540039,16.17432,14.03809,98.31116,-0.054931640000000004,15.86975,13.85833,-2.558333,-1.95,1
189020,-0.04150391,1.8715819999999999,0.2070313,-23.4375,-1.464844,22.46094,98.16284,1.049194,19.9292,18.2,-46.65,-29.96667,1
189310,-0.0859375,0.7514647999999999,-0.03125,-22.15576,-10.25391,-6.713867,96.86646,3.80127,16.13892,18.78333,-45.71667,-32.34167,1
189591,-0.2163086,1.296387,-0.300293,38.51318,6.347656,2.258301,96.30066,0.0769043,15.62256,10.59167,4.208333,-1.4583329999999999,1
189840,0.2338867,1.145996,0.03613281,-53.16162,33.44727,23.49854,99.90417,1.7303469999999999,16.35315,13.85833,-0.35833329999999997,0.8583333999999999,1
190080,0.02197266,1.095215,0.04931641,-8.666992,10.68115,-30.57861,96.17981,0.33508299999999996,23.57666,31.30833,1.416667,-3.15,1
190320,-0.06884766,0.8476562999999999,0.01953125,-3.662109,-37.29248,-22.33887,98.84949,2.103882,22.56592,20.34167,-46.10833,-27.28333,1
190640,-0.04248047,1.206543,-0.21386719999999998,37.59766,13.00049,-0.8544921999999999,96.66321,0.9832763999999999,19.24805,17.65,-46.79167,-29.76667,1
190940,0.05322266,0.8076171999999999,0.04248047,10.98633,6.774902,21.3623,100.2887,-0.3900146,22.00012,17.23333,-48.10833,-25.46667,1
191250,0.1293945,1.013672,0.1264648,-15.44189,6.04248,-35.88867,98.09143,0.6921387,24.76318,27.025,-1.966667,-0.7333333,1
191510,0.02197266,0.8105469,-0.08056641,-19.104,-8.056641,-7.446289,98.55286,3.032227,25.04883,21.24167,-45.76667,-25.35,1
191880,0.1601563,1.655273,0.1376953,9.033203,11.84082,-11.53564,99.29993,-1.5051269999999999,28.72375,16.675,1.275,2.491667,1
192110,0.1235352,0.7861328,-0.03759766,-14.09912,26.24512,9.338379,100.2338,-3.630981,36.10107,18.15,-48.48333,-17.425,1
192360,-0.002929688,1.007324,-0.07861328000000001,29.11377,-1.464844,-5.004883,98.71765,-1.153564,39.35303,22.55833,3.841667,-8.3,1
192630,0.1445313,1.489746,-0.16650389999999998,35.03418,2.441406,20.01953,102.2113,-2.164307,41.43494,13.63333,0.2666667,0.15,1
192850,0.03759766,0.8535155999999999,-0.09814453000000001,-26.85547,9.277344,34.729,98.73413,-0.1647949,38.62244,20.43333,-47.05833,-17.84167,1
193090,0.15820309999999999,0.5727538999999999,0.171875,19.04297,3.78418,-17.02881,99.94263,-0.6811522999999999,38.22144,16.7,1.741667,-4.316667,1
193340,0.2504883,0.8017578,-0.1376953,-19.16504,9.521484,-11.1084,99.40979,-4.081421,42.28638,18.86667,-48.11666,-14.725,1
193610,0.1484375,1.749023,-0.1474609,-17.33398,22.15576,-0.6103516,101.0797,-1.8951419999999999,45.67566,19.18333,2.633333,11.075,1
193860,-0.03515625,0.8432617,-0.04443359,-7.324219,-16.90674,-13.3667,99.31641,1.329346,45.17578,22.86667,-45.40833,-13.7,1
194160,0.13134769999999998,1.308105,0.022460940000000002,7.019043,-19.77539,-0.24414059999999999,98.06946,-1.636963,43.18726,21.03333,0.875,10.44167,1
194470,0.1074219,0.8535155999999999,0.048828130000000004,17.21191,29.90723,17.21191,99.646,-1.417236,46.62048,12.741670000000001,0.44166669999999997,-3.208333,1
194700,0.2148438,1.119141,-0.4160156,63.47656,15.01465,-5.004883,98.82751,-0.07141113,52.20703,8.5,4.083333,-3.175,1
194971,-0.02148438,0.8105469,0.02441406,-3.051758,-34.30176,-12.39014,100.0031,1.224976,50.21301,13.9,-1.083333,-3.358333,1
195290,-0.2602539,1.2416989999999999,-0.3540039,22.46094,-12.81738,11.23047,97.28394,-1.6149900000000001,45.95032,9.5,3.716667,-0.09166667,1
195600,0.06689453000000001,0.8740234,0.04736328,14.83154,25.08545,16.35742,99.44275,-2.713623,50.75684,15.26667,-1.066667,-1.341667,1
195900,0.3120117,1.242188,-0.48925779999999996,48.0957,20.32471,-8.605957,98.46497,-1.032715,54.92065,9.508333,4.608333,1.925,1
196240,-0.002441406,0.8242187999999999,0.002441406,6.652832,-13.73291,-15.56396,98.21228,1.917114,52.52014,14.65,-2.033333,-1.208333,1
196470,-0.1713867,1.410645,-0.19384769999999998,7.019043,-31.98242,8.972168,97.36084,-1.389771,50.88318,20.28333,-47.14167,-10.04167,1
196721,0.056640630000000004,1.135742,-0.02294922,-7.8125,46.81396,17.08984,99.03076,-0.2307129,51.78955,15.05,-0.17500000000000002,2.475,1
196990,0.09423828000000001,1.010254,-0.015136720000000001,1.953125,2.01416,-26.48926,97.22351,-1.323853,57.74963,28.89167,-5.166667,2.041667,1
197250,0.03271484,0.8339844,0.2841797,38.87939,-4.760742,-6.774902,99.39331,-1.120605,58.51868,17.14167,-0.5916667,-0.5,1
197460,0.048828130000000004,0.8842772999999999,-0.05224609,-5.92041,-30.51758,-13.18359,97.52563,2.373047,51.42151,15.25833,-2.525,-1.5833329999999999,1
197690,-0.2324219,1.4238279999999999,-0.24902339999999998,19.77539,-30.51758,12.51221,97.13013,-0.5438232,48.68042,20.73333,-47.09167,-10.89167,1
197960,0.08740234,0.9155272999999999,-0.04931641,11.41357,22.52197,16.35742,98.74512,-1.950073,52.17957,18.66667,-47.75,-7.15,1
198260,0.05126953,1.002441,0.017089840000000002,-4.272461,-3.234863,-23.92578,96.54236,-0.8514404,54.55811,25.95,4.25,-6.941667,1
198510,0.05419922,0.8378905999999999,0.078125,-12.75635,-37.78076,-23.07129,97.97058,0.5822754,52.68494,13.65,-0.6833332999999999,-2.783333,1
198790,0.03466797,1.087402,-0.02001953,25.5127,13.30566,4.882813,94.83948,-0.44494629999999996,50.0592,20.20833,-47.45833,-10.625,1
199080,0.125,1.124512,0.1362305,3.234863,3.173828,-18.31055,97.4762,0.9063721,50.68542,13.41667,1.433333,-0.9916666999999999,1
200320,0.06738281,0.8583984,0.04052734,3.112793,21.05713,24.90234,96.76758,-0.005493164,54.17908,13.80833,-0.3333333,-1.983333,1
200580,0.05615234,0.7841796999999999,-0.137207,-16.8457,14.77051,-24.35303,94.84497,-2.092896,56.71143,18.04167,-4.483333,5.208333,1
200830,0.1044922,1.4916989999999999,0.03564453,-25.93994,-12.87842,-9.399414,97.74536,-0.4724121,57.81006,21.93333,-45.76667,-5.683333,1
201170,-0.25439449999999997,1.207031,-0.2006836,21.54541,-11.84082,15.99121,94.18579,0.09338379000000001,54.23401,19.91667,-47.45833,-8.708333,1
201460,0.1420898,1.526855,-0.05126953,15.86914,16.05225,0.1831055,96.96533,0.9613037,51.46545,13.95833,1.15,1.683333,1
201780,0.03076172,0.9877929999999999,-0.022460940000000002,-14.5874,11.1084,-29.35791,94.66919,-1.604004,57.7002,21.85833,-8.758333,8.425,1
202020,-0.19775389999999998,1.067871,0.10693359999999999,-29.11377,-40.64941,-28.44238,97.8717,-0.3515625,57.23877,13.3,0.325,-0.1166667,1
202320,0.04248047,0.9086913999999999,-0.03808594,-18.31055,-0.7324219,27.16064,94.01001,0.736084,50.85022,19.95,-47.50834,-9.6,1
202580,0.2583008,0.9375,0.1293945,-10.43701,37.47559,14.89258,96.93237,0.7525634999999999,52.33337,20.05833,-47.15833,-6.533333,1
202820,0.1328125,0.730957,-0.1494141,-22.94922,29.78516,-12.3291,94.60327,-1.922607,58.255,17.63333,0.9,0.30000000000000004,1
203100,-0.04931641,1.685547,0.2001953,-27.40479,4.455566,10.55908,97.33887,0.368042,60.54016,25.60833,-1.95,5.55,1
203330,-0.04296875,0.8081054999999999,-0.004882813000000001,-19.16504,-26.30615,-4.02832,95.77332,3.812256,54.61853,22.2,-45.725,-7.633333,1
203590,0.002441406,1.054199,-0.078125,31.98242,-9.58252,4.455566,93.36731,0.43396,50.71289,23.29167,2.891667,1.541667,1
203810,0.14697269999999998,0.7602538999999999,0.05908203,11.2915,13.97705,24.16992,96.87744,-0.8789062999999999,49.82849,18.01667,-48.11666,-7.283333,1
204090,0.03759766,0.9741211,-0.024902340000000002,-6.164551,-0.1831055,-35.21729,95.21851,-0.7855225,51.9104,21.925,-7.508333,4.716667,1
204330,-0.2895508,1.002441,0.06640625,-6.591797,-17.33398,-18.73779,99.23401,1.290894,53.44849,21.175,-45.68333,-4.141667,1
204620,-0.08935547,0.9311522999999999,0.02978516,-12.63428,-0.3051758,26.48926,95.77881000000001,0.1098633,53.272710000000004,18.98333,-47.45,-6.358333,1
204900,-0.07421875,1.158691,0.1455078,11.23047,-20.56885,-28.25928,98.9978,0.802002,51.22925,14.41667,0.2,-0.7166667,1
205150,0.09375000000000001,0.8442383,-0.2045898,-20.01953,10.68115,-26.30615,97.55859,-1.5325929999999999,58.4967,16.10833,0.5333333,0.7166667,1
205550,0.005371094000000001,0.8627929999999999,0.07861328000000001,-2.258301,-38.94043,-17.45605,97.40479,2.098389,55.83252,21.65,-45.55,-5.65,1
205870,-0.06738281,0.9926758,0.04345703,13.85498,-12.02393,14.95361,93.66943,1.016235,51.22925,22.78333,1.9000000000000001,0.6583333,1
206220,0.15087889999999998,0.8110352,0.07714844,-2.197266,28.50342,26.48926,97.24548,1.010742,49.16931,13.24167,-0.04166667,-2.633333,1
206410,0.1376953,0.7871094,-0.1328125,-24.53613,15.74707,-20.69092,94.89441,-1.708374,52.16858,17.78333,-2.058333,4.866667,1
206600,-0.3066406,1.34375,0.2832031,-29.96826,6.286621,2.563477,96.87744,0.6811522999999999,52.35535,22.4,-1.275,0.1916667,1
206810,-0.08105469,0.8334961,0.0,-12.51221,-12.75635,-6.347656,96.03149,3.982544,49.70215,22.73333,-45.20833,-8.366667,1
207050,-0.1015625,1.066406,-0.08300781,25.02441,-16.29639,7.995605,93.68042,1.170044,47.14233,22.39167,3.225,-0.1916667,1
207330,0.015136720000000001,1.403809,0.0034179690000000003,25.14648,-13.85498,-25.87891,97.43774,2.125854,44.09912,13.55,1.658333,-0.01666667,1
207560,0.01220703,0.8291016,-0.1318359,-19.71436,17.57813,-18.06641,94.4989,-2.04895,51.41052,16.25,-1.725,3.441667,1
207830,0.0625,1.152344,-0.03564453,5.126953,5.554199,2.746582,96.56982,0.1318359,52.19604,20.41667,-46.83333,-7.041667,1
208130,-0.07910156,0.8842772999999999,0.03857422,-5.310059,1.708984,-5.92041,95.33936,2.9608149999999998,50.91614,14.05833,-1.183333,-3.1,1
208380,0.265625,1.4375,0.01269531,12.81738,6.347656,-13.67188,94.66919,0.2636719,48.07068,18.55833,3.916667,-1.108333,1
208650,0.1054688,0.855957,-0.002441406,-11.2915,24.71924,14.22119,95.22949,-2.389526,51.44897,13.125,-1.941667,-1.65,1
208980,-0.4233398,1.54541,0.3520508,-8.361816,-18.73779,-6.591797,96.87195,2.69165,50.16357,21.2,-46.50834,-6.633333,1
209250,-0.1479492,0.8413086,0.05126953,-22.82715,-103.2104,4.882813,93.38928,4.553833,28.89404,21.54167,-46.35,-22.58333,1
209550,0.08837891,1.376465,0.02978516,-32.04346,-186.6455,13.3667,87.57751,2.1698,-2.010498,16.71667,-3.291667,-3.358333,1
209810,0.2392578,1.000977,-0.0625,-19.47021,-117.3096,-15.25879,82.29858,-2.889404,-42.05566,16.69167,-1.116667,-3.425,1
210090,0.2924805,0.890625,-0.0703125,13.3667,-107.666,-26.67236,80.86487,-5.696411,-79.60144,19.625,-1.775,2.683333,1
210420,-0.05419922,1.021973,-0.05419922,-20.38574,-58.1665,-28.07617,84.34204,-2.411499,-105.1227,15.225,-1.175,-1.775,1
210730,-0.08740234,0.9213867,-0.1020508,2.807617,-24.96338,11.90186,82.05688,-0.45593259999999997,-116.2518,23.475,-0.4,4.183333,1
210960,-0.07666016,1.188965,0.017089840000000002,14.28223,-30.70068,21.85059,86.5448,-2.389526,-119.9872,17.00833,-0.1916667,3.233333,1
211180,0.1835938,0.8745117,-0.02001953,-13.00049,-20.32471,8.117676,86.33606,-7.179565,-127.1887,14.35833,-1.475,-3.225,1
211441,0.105957,0.9101562999999999,-0.02148438,9.155273,-9.277344,-16.11328,84.6991,-5.350342,-128.2874,19.425,-5.383333,3.725,1
211650,0.002441406,0.7260742,0.1674805,57.43408,2.319336,0.12207029999999999,88.35205,-3.416748,-126.3043,18.84167,0.05,0.2833333,1
211860,-0.140625,0.9511719,-0.1044922,-26.30615,-4.638672,11.2915,89.18152,0.7855225,-127.5128,-42.04167,-45.64167,-22.15833,1
212110,-0.09619141,1.053223,-0.3505859,25.32959,-26.12305,9.765625,87.88513,-2.092896,-130.5176,16.125,6.083333,-0.85,1
212400,0.06982422,0.871582,0.009277344,-2.075195,28.32031,24.10889,90.3241,-4.850464,-128.2104,-47.09167,-40.06667,-22.53333,1
212720,0.2768555,1.274414,-0.472168,48.03467,29.78516,-13.79395,90.49988,-2.351074,-120.5695,9.3,5.183333,-1.183333,1
213001,-0.02734375,0.8706054999999999,-0.01855469,4.333496,-12.26807,-15.44189,91.79626,1.230469,-119.5477,-41.05,-45.86666,-24.50833,1
213310,-0.2719727,1.197266,-0.5336913999999999,21.42334,-46.02051,13.85498,91.01074,-1.5325929999999999,-125.4419,12.70833,7.141667,0.65,1
213640,0.05078125,0.9077147999999999,-0.05566406,-8.300781,26.79443,12.45117,93.5321,-2.455444,-124.2664,13.55,-2.566667,-1.633333,1
213900,0.2578125,1.263184,-0.46582029999999996,32.71484,36.43799,-7.69043,93.52112,-2.208252,-113.6151,-42.60833,-43.10833,-28.90833,1
214180,-0.1396484,1.220703,-0.01074219,-25.45166,-35.15625,-38.75732,93.41675,-0.1208496,-113.8953,14.71667,-0.5,0.65,1
214440,0.03320313,0.8710937999999999,-0.03857422,-21.85059,-6.835938,25.6958,88.84094,0.7250977,-122.3932,22.49167,-5.891667,2.883333,1
214740,0.1611328,0.8671875,0.11474609999999999,-6.591797,20.20264,25.45166,92.71912,-0.269165,-124.5081,12.11667,0.425,-0.925,1
215040,0.09863281,1.040039,-0.234375,36.43799,1.525879,-2.746582,90.41748,-0.4119873,-124.2114,18.10833,6.15,-5.208333,1
215370,0.01904297,0.8046875,0.02929688,-7.93457,-15.99121,-16.47949,92.34558,1.428223,-121.2616,14.575,-1.133333,-2.8,1
215580,0.056640630000000004,0.8354492,-0.1235352,-13.3667,-0.3051758,29.66309,88.28064,1.499634,-123.5358,19.35,-4.683333,6.425,1
215880,0.24462889999999998,0.9555663999999999,0.007324219000000001,4.760742,26.79443,23.49854,93.72437,1.257935,-124.6014,14.11667,-0.8916666,-1.366667,1
216090,0.10644529999999999,0.8842772999999999,0.06445313,-18.43262,5.065918,-23.86475,91.54907,0.1263428,-119.295,-44.09167,-42.80833,-24.7,1
217320,0.05712891,0.9877929999999999,-0.3623047,48.40088,9.399414,-3.601074,91.95007,0.1043701,-116.153,-44.06667,-42.65833,-25.83333,1
217570,-0.04736328,1.13916,0.01660156,-52.67334,-17.15088,-24.41406,94.58679,-0.2197266,-114.4446,12.95,0.5333333,-0.5916667,1
217850,-0.02929688,0.9428711,-0.10107419999999999,-2.13623,-4.211426,26.24512,89.89563,0.5767822,-119.4983,20.84167,-5.266667,3.475,1
218110,0.23779299999999998,0.9350586,0.01464844,5.065918,33.20313,23.07129,94.52637,0.7470703,-120.7507,-45.45833,-42.34167,-21.0,1
218360,0.2182617,0.7846679999999999,-0.1376953,-17.82227,38.33008,-16.35742,93.88916,-1.466675,-114.6643,17.04167,0.36666669999999996,-2.0,1
218640,0.02441406,1.022949,0.2563477,110.90090000000001,5.004883,15.74707,94.57031,-0.39550779999999996,-106.3696,-42.7,-43.31667,-29.05,1
218930,-0.01953125,0.7700195,-0.1923828,-20.01953,-27.9541,11.23047,91.73584,2.9168700000000003,-116.0156,16.33333,-0.31666669999999997,-1.283333,1
219240,-0.1362305,1.418457,-0.09082031,72.26563,-17.7002,-31.98242,96.30066,1.483154,-119.7565,-45.5,-42.58333,-20.46667,1
219540,0.03808594,0.828125,-0.140625,-24.6582,24.16992,-31.49414,94.11438,-0.5273438,-111.297,17.48333,-4.983333,6.641667,1
219850,-0.09130859,1.37793,-0.03173828,-20.08057,-22.33887,-19.83643,96.37756,0.3790283,-107.4188,-42.75,-44.15,-26.04167,1
220160,-0.004394531,0.8852538999999999,-0.13134769999999998,-20.20264,-3.662109,31.79932,93.17505,1.384277,-114.6039,-45.44167,-41.65,-24.53333,1
220490,0.30126949999999997,0.9726562999999999,0.05566406,-13.06152,33.56934,27.40479,95.00977,1.609497,-117.0154,13.78333,-0.5916667,-1.058333,1
220800,-0.08496094,1.022461,-0.04833984,-9.765625,6.9580079999999995,-28.56445,91.64795,-0.005493164,-109.0338,27.95833,2.7,0.7916667,1
221040,-0.1015625,0.9389647999999999,-0.009277344,20.08057,-50.65918,-16.54053,96.37756,2.5927729999999998,-108.7372,-42.475,-44.35833,-25.175,1
221280,0.07275391,0.8208008,-0.17871089999999998,-16.96777,-10.0708,35.5835,94.88342,3.240967,-115.0983,18.725,-5.766667,4.1,1
221510,0.1855469,0.8256836,0.08349609,-4.760742,-8.728026999999999,-19.77539,96.77307,1.713867,-118.2239,22.4,-1.558333,-2.416667,1
221730,0.05371094,0.8320312999999999,-0.1450195,-12.57324,-2.563477,-9.094238,95.50415,-0.368042,-116.4386,-46.39167,-40.91667,-21.55,1
221970,0.3979492,1.109863,-0.5639647999999999,53.03955,9.338379,-6.04248,96.28418,3.499146,-117.6141,12.3,4.658333,-1.591667,1
222240,-0.2724609,1.091797,-0.02001953,-17.57813,-20.20264,-29.90723,96.94885,2.213745,-115.5157,14.11667,-0.03333333,-0.5833332999999999,1
222471,0.01416016,0.9399413999999999,-0.1035156,-8.117676,-0.3662109,31.79932,93.06519,2.856445,-121.6956,20.575,-4.991667,2.75,1
222740,0.2319336,0.9443359,0.0,11.59668,18.12744,21.05713,97.41577,2.779541,-124.4696,12.58333,-0.44166669999999997,-0.775,1
223080,0.07275391,0.9770508,-0.01611328,-11.59668,14.28223,-21.42334,95.92163,2.268677,-118.916,-44.7,-42.99166,-19.08333,1
223340,-0.1191406,0.921875,0.008300781,3.662109,-27.40479,-15.56396,97.53662,2.768555,-116.2299,-43.80833,-43.68333,-19.15,1
223640,0.05419922,0.8276367,-0.1157227,-21.91162,7.080078,23.55957,94.87793,3.641968,-118.6688,18.275,-3.408333,2.75,1
223890,0.1157227,1.308594,-0.028808590000000002,2.075195,-14.28223,-18.00537,97.65747,2.642212,-121.723,14.275,0.3916667,-0.2,1
224180,0.017089840000000002,0.8471679999999999,-0.1757813,-16.47949,4.394531,-26.18408,94.9823,-0.7415771,-114.3292,15.675,-4.458333,5.133333,1
224540,0.190918,1.515625,-0.01318359,-2.563477,-13.73291,-1.403809,98.29468,1.609497,-112.2583,15.09167,0.5416667,-0.2833333,1
224810,0.052734380000000004,0.8647461,-0.1123047,-15.86914,-18.67676,27.22168,93.8562,3.47168,-121.9757,16.98333,-3.158333,3.733333,1
225160,0.12695309999999999,0.8476562999999999,0.03710938,-15.38086,10.98633,26.36719,95.625,1.593018,-125.5298,-46.175,-40.775,-13.425,1
225380,0.16650389999999998,0.8374022999999999,-0.2006836,-22.15576,-6.347656,-14.34326,94.13635,0.2087402,-126.7767,-46.11666,-41.31667,-14.53333,1
225630,0.1801758,1.718262,-0.1342773,15.93018,35.40039,9.70459,96.51489,1.96106,-125.9198,15.66667,1.775,4.808333,1
225870,-0.07763672,0.9291992,0.01318359,-5.310059,-18.67676,-13.67188,95.82825,2.8125,-124.6179,15.44167,-1.116667,-0.6916667,1
226090,-0.09228516,0.9526367,0.041015630000000004,8.422852,-20.87402,21.85059,93.82324,1.263428,-128.7762,28.55,0.15,1.433333,1
226350,0.078125,1.046875,0.1411133,-4.150391,-42.72461,-0.7324219,96.56433,1.142578,-135.6372,15.991670000000001,-0.125,-1.316667,1
226570,0.1918945,0.8647461,-0.1533203,-21.54541,25.26855,-14.70947,94.70764,-1.428223,-131.9678,-47.76667,-39.38334,-10.025,1
226860,0.4487305,1.493652,-0.3540039,34.48486,30.0293,-12.20703,95.41077,1.73584,-128.2379,9.316667,2.325,7.1,1
227100,-0.34863279999999996,1.008789,0.06347656,-10.37598,-41.56494,-28.74756,95.08667,2.504883,-128.5181,13.49167,-0.125,-0.2833333,1
227330,-0.1054688,0.8945312999999999,0.08886719,-7.69043,-11.2915,22.2168,92.35657,3.208008,-134.3079,25.04167,-1.275,1.55,1
227580,0.1015625,0.9252929999999999,-0.030273440000000002,-0.5493163999999999,-4.577637,31.18896,95.71289,2.856445,-142.7234,-43.54167,-41.16667,-0.7666666999999999,1
227890,0.2041016,0.684082,-0.1699219,-22.33887,0.7324219,-32.95898,93.60352,0.8789062999999999,-144.7559,19.63333,-3.7,6.475,1
228130,-0.2470703,1.279297,-0.0078125,-35.52246,-28.38135,-21.60645,96.16882,1.488647,-144.679,13.45833,0.2333333,-0.04166667,1
228390,0.1723633,0.9116211,-0.07177734,-9.58252,-3.601074,28.80859,91.62598,2.109375,-154.671,21.15,-8.15,2.483333,1
228740,0.4008789,1.041504,0.0234375,-35.5835,32.95898,26.12305,95.55359,1.065674,-155.8301,14.991670000000001,-0.5750000000000001,0.15833329999999998,1
229020,0.06787109,0.9682617,-0.01074219,-18.06641,22.64404,-29.35791,91.88416,-0.9613037,-144.4592,29.91667,-3.116667,1.691667,1
229350,-0.15869139999999998,0.8598633,0.09228516,7.019043,-20.69092,-25.20752,95.7019,0.8404541,-140.1965,14.075,-0.5416667,-1.208333,1
229660,0.008789063,1.220703,-0.3037109,39.48975,3.601074,-5.7983400000000005,93.82874,-0.8349609,-142.8882,18.64167,6.058333,-1.383333,1
229890,-0.0034179690000000003,1.428711,-0.04394531,-3.051758,-8.789063,-10.00977,95.55908,1.483154,-144.8383,13.69167,0.85,0.225,1
230100,0.14306639999999998,0.8168945,-0.06005859,-16.8457,14.89258,-1.464844,93.07617,-1.148071,-141.6907,14.46667,-3.616667,-2.716667,1
230320,-0.002441406,0.3310547,0.3149414,6.347656,-9.460449,-8.056641,92.40601,1.021729,-139.7845,-43.15,-42.33333,-2.341667,1
230550,-0.015625,0.8212891,0.005859375,-3.2958979999999998,-38.08594,-5.615234,94.10889,2.911377,-146.7224,13.975,-2.566667,-2.775,1
230810,0.1333008,1.414063,-0.09277344,13.67188,-16.78467,3.173828,92.93335,-0.5383300999999999,-154.4183,20.46667,2.391667,4.5,1
231110,0.030273440000000002,0.7412109,-0.05029297,-12.75635,9.887695,7.385254,93.98804,-1.917114,-151.3806,14.26667,-3.258333,-1.741667,1
231410,-0.4794922,1.098145,0.12255859999999999,-33.3252,18.24951,11.65771,94.36157,0.3900146,-147.2992,-41.45833,-41.89167,3.0,1
231680,-0.0703125,0.8271484,-0.022460940000000002,-5.92041,-11.53564,-13.61084,95.96008,1.999512,-147.5299,13.69167,-1.266667,-4.15,1
231940,-0.19726559999999999,1.338867,-0.2768555,17.27295,-20.50781,6.9580079999999995,94.22974,-1.51062,-149.425,-42.375,-40.81667,2.958333,1
232230,0.015136720000000001,0.8261719,-0.03125,6.04248,8.850098,12.45117,94.88342,-2.416992,-146.6016,13.125,-2.125,-2.283333,1
232530,0.05126953,1.489258,0.1401367,-40.58838,32.4707,-6.591797,96.67419,0.2087402,-144.646,-42.21667,-42.43333,0.675,1
232830,-0.02685547,0.8095703,-0.004882813000000001,-16.11328,-2.319336,6.347656,94.65271,2.872925,-146.2994,-40.38334,-43.59167,1.933333,1
233120,0.2231445,0.8520508,0.253418,-10.0708,2.197266,-10.74219,94.66919,-1.571045,-146.7828,-43.16667,-40.56667,3.341667,1
234400,0.09765625,0.8984375,0.2416992,47.97363,-33.99658,-13.00049,94.42749,-0.5438232,-147.2223,15.53333,0.5,0.1083333,1
234650,0.1489258,0.8071288999999999,-0.1323242,-16.29639,-8.483887,-14.77051,94.14734,-2.922363,-144.4592,17.55,0.975,-0.9083334,1
235020,0.024902340000000002,0.8842772999999999,-0.002929688,-4.150391,-38.81836,-20.56885,96.31165,0.7690429999999999,-144.668,-41.24166,-42.06667,3.691667,1
235250,0.08203125,0.8110352,-0.18652339999999998,-16.47949,-2.01416,24.4751,93.88367,0.5548096,-147.9749,18.825,-3.05,2.583333,1
235530,0.4448242,1.305176,0.15478519999999998,-5.004883,-10.98633,-15.93018,95.56458,-1.384277,-150.1227,20.41667,0.2583333,0.01666667,1
235740,0.1191406,0.8549804999999999,0.06201172,-14.16016,26.18408,21.11816,95.15259,-1.862183,-147.8156,13.45,-0.6666667,-2.533333,1
235960,0.02832031,1.006836,-0.3364258,64.94141,3.173828,0.1831055,93.14758,-1.054688,-141.1963,-43.89167,-41.94167,-1.891667,1
236190,0.1181641,1.57666,-0.12695309999999999,3.90625,-16.41846,-19.16504,96.97632,-1.175537,-139.5813,14.0,0.5666667,1.4583329999999999,1
236430,-0.04736328,0.8764647999999999,-0.048828130000000004,-10.31494,-13.30566,26.61133,93.60901,-0.3186035,-146.239,-41.95,-42.0,2.458333,1
236690,-0.02978516,1.282715,-0.30126949999999997,20.62988,-27.34375,9.82666,95.97656,-1.625977,-148.4363,18.0,2.8083329999999997,5.341667,1
236930,0.1264648,0.8051758,-0.05371094,-8.178711,1.281738,17.82227,95.57007,-2.114868,-152.71,13.94167,-2.491667,-2.983333,1
237180,-0.1196289,1.199707,0.28564449999999997,-37.47559,21.42334,2.502441,94.56482,-0.9448242,-151.5015,-40.31667,-41.83333,5.05,1
237440,-0.03271484,0.7924804999999999,0.03076172,10.37598,-18.18848,-21.91162,95.82275,0.3295898,-149.4525,14.1,-0.9500000000000001,-2.116667,1
237720,-0.2519531,1.192383,-0.3979492,17.27295,1.342773,3.417969,94.57581,-2.043457,-147.7167,14.58333,1.383333,-1.558333,1
237990,0.125,0.7724609,0.03222656,1.708984,24.35303,24.10889,95.625,-2.570801,-142.3334,14.14167,-1.383333,-1.258333,1
238250,0.24414059999999999,1.109375,-0.5336913999999999,53.83301,12.45117,-4.455566,94.64722,-0.7415771,-138.8287,-42.65,-41.81667,-0.1833333,1
238560,-0.2246094,1.270996,-0.01025391,-23.49854,-15.19775,-25.6958,96.96533,-1.933594,-135.5054,13.76667,0.1,0.125,1
238840,0.002929688,0.9116211,-0.06445313,-14.46533,-10.62012,29.05273,93.5376,-1.104126,-140.9601,22.175,-6.666667,2.85,1
239120,0.2714844,1.324219,-0.08398438,5.310059,34.42383,7.324219,96.00952,-0.3900146,-144.8108,14.575,-0.01666667,1.075,1
239460,0.2822266,1.144531,-0.5151367,47.24121,22.03369,-1.89209,95.16907,-1.6754149999999999,-135.0934,-43.70833,-40.51667,-1.741667,1
239730,0.1137695,1.358887,-0.03076172,-23.49854,-17.7002,-23.86475,96.14685,-1.587524,-132.561,14.13333,0.47500000000000003,0.4,1
239970,-0.09912109000000001,0.8740234,-0.09326172,-13.67188,-18.9209,7.446289,93.74634,2.026978,-137.0819,15.48333,-1.691667,-0.30000000000000004,1
240180,0.008789063,0.9008788999999999,0.1411133,28.93066,-34.79004,0.9155272999999999,95.96008,-0.7965088,-142.0477,-40.65,-39.33333,4.783333,1
240450,0.06591797,0.8305663999999999,-0.01855469,0.7324219,12.87842,12.08496,95.98206,-2.867432,-140.5151,15.475,-1.475,-1.291667,1
240670,0.3676758,1.151367,-0.2885742,38.94043,4.516602,-13.06152,95.3009,-0.604248,-140.0372,-40.95,-39.58333,2.05,1
240930,-0.2675781,1.005859,0.028808590000000002,5.310059,-61.70654,-26.30615,96.30066,-0.06591797,-144.9316,14.25833,-1.258333,-0.8916666,1
241210,-0.2675781,1.005859,0.028808590000000002,5.310059,-61.70654,-26.30615,96.30066,-0.06591797,-144.9316,14.53333,1.066667,0.5583332999999999,1
241440,0.1694336,1.020508,0.11621089999999999,-6.408691,-8.666992,-20.1416,97.40479,0.5328369,-147.7661,17.19167,0.2666667,-2.658333,1
241670,0.16601559999999999,0.7714844,-0.18603519999999998,-19.83643,17.76123,-18.37158,94.39453,-2.719116,-140.3668,-39.75,-37.85833,0.17500000000000002,1
241980,-0.06933594,1.3935549999999999,0.10058589999999999,-38.69629,6.164551,7.507324,96.56433,-0.33508299999999996,-137.829,25.06667,-0.9166667,3.35,1
242220,-0.028808590000000002,0.7851562999999999,-0.07763672,-14.89258,-18.18848,-0.793457,96.828,2.219238,-141.6907,13.11667,-2.008333,-3.458333,1
242490,0.43505859999999996,1.343262,0.23779299999999998,0.24414059999999999,-5.92041,-17.33398,97.04224,-1.40625,-144.9646,-39.50834,-37.425,4.866667,1
242800,0.07568359,0.7880859,-0.01367188,1.037598,22.52197,26.97754,97.53662,-1.939087,-143.1628,12.58333,-1.541667,-2.558333,1
243060,0.5024413999999999,1.195313,-0.5541992,57.00684,13.85498,-6.347656,96.96533,-1.137085,-139.7351,7.616667,4.516667,-1.875,1
243330,0.001953125,0.8408203,0.0004882813,-5.004883,-11.71875,-8.117676,97.56958,0.27465819999999996,-137.3676,-41.15833,-40.04167,1.9916669999999999,1
243690,-0.08398438,1.118164,0.1689453,36.43799,-23.37646,-16.35742,97.61902,-1.170044,-142.8937,-42.09167,-38.45,5.758333,1
243950,0.09716797,0.8022461,-0.03125,-12.3291,28.01514,12.45117,97.55859,-3.416748,-139.6967,13.741670000000001,-2.95,-2.508333,1
244210,0.09423828000000001,0.9487304999999999,0.03417969,-1.7700200000000001,-2.197266,-14.64844,94.89441,-1.175537,-136.4886,27.16667,-3.616667,-2.058333,1
244420,-0.08544922,0.9458008,0.02783203,-0.3051758,-30.45654,-16.47949,96.48743,-0.1593018,-135.8185,-43.25834,-40.86666,1.8333329999999999,1
244650,0.001953125,0.8041992,-0.1674805,-15.19775,-18.31055,21.72852,94.30664,1.307373,-140.1031,15.98333,0.2,1.925,1
244900,0.08007813,1.083496,0.09667969,18.73779,-24.10889,-19.22607,97.13013,-0.9118651999999999,-143.009,-42.85833,-39.64167,5.0,1
245140,0.08154297,0.8168945,-0.04003906,-18.37158,2.746582,7.873535,95.61401,-2.724609,-141.9049,14.09167,-2.791667,-4.166667,1
245430,-0.3999023,1.419922,0.2729492,-41.01563,-2.13623,7.263184,93.60352,-0.3790283,-140.3613,-42.98333,-41.64167,1.566667,1
245720,-0.1196289,0.8935546999999999,-0.03808594,-22.03369,-22.03369,1.403809,93.40576,2.790527,-147.2278,-38.86666,-43.31667,4.6,1
246000,-0.21386719999999998,1.223633,-0.34814449999999997,26.9165,0.5493163999999999,9.82666,93.67493,-0.9503174,-148.7494,15.61667,4.15,-1.108333,1
246250,0.07617188,0.8579102,0.0009765625,7.019043,37.90283,12.57324,96.38855,-2.230225,-143.3441,-44.04167,-38.65833,2.966667,1
246510,0.13134769999999998,1.480957,-0.206543,50.96436,27.16064,1.159668,96.77856,-0.4284668,-135.9119,-43.425,-40.53333,-1.008333,1
246810,-0.1191406,0.9755859,0.06933594,1.8310549999999999,-29.05273,-16.54053,96.33911,-0.3900146,-134.9725,12.31667,0.2333333,-1.3333329999999999,1
247070,-0.09277344,0.9892578,0.04833984,19.59229,-9.216309,18.9209,92.8894,-2.515869,-138.8947,23.65,3.825,1.591667,1
247330,0.1362305,0.7988280999999999,0.0390625,-1.6479489999999999,34.729,25.45166,96.94885,-2.5872800000000002,-136.0107,-44.55,-38.01667,0.7666666999999999,1
247650,-0.004882813000000001,0.8330078,-0.1796875,-17.39502,4.699707,-30.45654,95.18005,-2.785034,-130.4022,16.0,-4.0,4.291667,1
247920,-0.02050781,0.7558594,0.01611328,-0.06103516,-23.74268,-19.40918,97.04224,0.9448242,-132.5555,-41.03333,-40.5,0.5166666999999999,1
248290,0.11865229999999999,1.500977,-0.1728516,18.49365,-44.92188,9.460449,96.59729,-1.680908,-138.1201,20.09167,1.95,3.308333,1
248520,0.05761719,0.8339844,-0.05029297,-11.35254,36.13281,10.80322,97.12463,-2.817993,-136.3623,14.4,-2.641667,-2.025,1
248820,0.01416016,0.9721679999999999,0.03710938,-8.422852,-1.464844,-21.85059,94.13086,-1.450195,-133.2037,27.96667,-0.05833333,-1.916667,1
249030,0.1254883,1.50293,-0.09082031,86.48682,6.286621,12.75635,97.20154,-0.9118651999999999,-132.8082,15.98333,-0.425,0.5416667,1
249250,0.08154297,0.8017578,-0.1464844,-14.16016,-11.04736,24.16992,95.74585,1.658936,-138.9935,-40.18333,-39.86666,3.5,1
249490,0.4135742,1.237793,0.24121089999999998,7.202148,-0.3051758,-13.91602,97.26196,-1.235962,-140.5811,25.48333,-1.183333,0.075,1
249740,0.07421875,0.7563477,-0.05126953,-19.47021,11.65771,6.896973,96.55884,-3.422241,-136.5491,-43.85833,-37.48333,2.075,1
251000,0.1235352,0.8022461,-0.168457,-22.94922,5.615234,-19.16504,97.3114,-2.768555,-132.4127,16.93333,-0.7916667,-0.47500000000000003,1
251260,-0.16650389999999998,1.498047,0.2416992,-49.37744,21.48438,11.53564,98.02551,-0.3076172,-129.5398,30.29167,-2.783333,2.016667,1
251490,-0.03759766,0.793457,-0.04980469,-19.40918,-17.45605,-2.441406,96.7511,2.290649,-133.2092,13.98333,-1.9583329999999999,-3.283333,1
251760,0.2744141,0.9091796999999999,0.12451169999999999,-1.098633,12.69531,-18.43262,97.14111,-0.9008788999999999,-134.7748,-41.54167,-38.66667,2.708333,1
252030,0.1074219,0.8393554999999999,0.008300781,13.79395,19.65332,18.12744,99.03625,-1.994019,-131.9623,13.375,-1.783333,-1.666667,1
252270,0.378418,1.217285,-0.4921875,48.52295,24.59717,-7.324219,98.87146,0.1702881,-126.947,-42.675,-39.85,-1.658333,1
252560,-0.01074219,0.8300780999999999,-0.04541016,-6.9580079999999995,-32.40967,-14.83154,98.30566,1.774292,-130.2374,-40.2,-40.35833,1.133333,1
252860,-0.1342773,1.302246,-0.2597656,15.44189,-65.91797,9.155273,97.94861,-1.6149900000000001,-138.5431,-40.98333,-37.96667,5.325,1
253150,0.45751949999999997,1.006836,0.011230470000000001,-21.24023,15.80811,22.15576,97.66296,1.213989,-146.0962,15.15,-0.5833332999999999,-1.791667,1
253470,0.1450195,1.5825200000000001,-0.1113281,16.23535,28.19824,-3.967285,95.45471,-0.5987549,-138.0048,-39.94167,-40.29167,1.15,1
253700,-0.01074219,0.9375,0.08300781,12.146,-21.24023,-15.19775,95.35034,1.170044,-139.054,12.7,0.3333333,-2.008333,1
253950,0.1298828,0.8471679999999999,-0.1831055,-4.577637,17.51709,26.36719,93.87268,0.7800292999999999,-138.653,22.475,-5.308333,2.533333,1
254160,0.2314453,1.083008,-0.007324219000000001,-5.859375,30.09033,17.7002,97.30042,0.40649409999999997,-137.1643,-39.59167,-38.825,4.008333,1
254390,0.15478519999999998,0.7568359,-0.1523438,-16.29639,14.34326,-14.52637,95.48218,-3.587036,-132.5281,17.45833,1.0,-0.7916667,1
254671,0.05322266,1.896484,0.08740234,-2.380371,23.19336,6.103516,98.45947,-0.4284668,-130.0067,29.04167,-1.758333,8.5,1
254920,-0.02734375,0.7612304999999999,-0.07910156,-14.89258,-9.82666,-2.01416,97.66296,2.175293,-130.5396,14.23333,-2.1,-2.85,1
255160,-0.171875,1.1948239999999999,-0.33398439999999996,35.82764,-0.12207029999999999,-1.89209,96.80603,-1.395264,-131.3965,19.18333,6.266667,-0.25,1
255380,0.05126953,0.8413086,-0.03369141,8.178711,13.73291,23.80371,98.07495,-1.329346,-132.4127,-41.16667,-37.69167,4.008333,1
