Timestamp,AccX,AccY,AccZ,GyroX,GyroY,GyroZ,AngX,AngY,AngZ,MagX,MagY,MagZ,Tag
0,-0.0009765625,0.9711913999999999,-0.2998047,-0.06103516,-0.1831055,-0.12207029999999999,103.7219,-0.01647949,157.7417,16.525,-5.133333,0.01666667,1
399,0.0,0.9707030999999999,-0.3037109,0.0,0.0,0.12207029999999999,103.7604,-0.01098633,157.7362,16.54167,-5.158333,-0.008333334000000001,1
649,0.0004882813,0.9707030999999999,-0.30273439999999996,-0.1831055,0.0,0.0,103.7714,-0.02197266,157.7417,16.53333,-5.175,0.0,1
899,0.0,0.9716796999999999,-0.3056641,-0.24414059999999999,-0.3662109,0.0,103.7769,-0.01647949,157.7197,59.83333,-85.6,79.08334,1
1189,0.0,0.9711913999999999,-0.3046875,0.24414059999999999,0.0,0.0,103.8153,-0.01647949,157.7087,16.53333,-5.2,0.008333334000000001,1
1449,0.001464844,0.9711913999999999,-0.3037109,-0.06103516,0.1831055,0.0,103.8373,-0.02197266,157.7307,16.53333,-5.183333,-0.01666667,1
1759,-0.0004882813,0.9702147999999999,-0.30175779999999996,-0.06103516,0.06103516,0.0,103.8153,-0.027465820000000002,157.7747,16.575,-5.141667,0.0,1
2059,-0.002441406,0.9721679999999999,-0.3056641,-1.281738,-0.06103516,0.3051758,103.7494,-0.04943848,157.7802,16.475,-5.141667,-0.15,1
2359,0.0,0.9692383,-0.3032227,1.159668,0.1831055,-0.24414059999999999,103.6945,-0.005493164,157.7966,16.60833,-5.208333,0.1833333,1
2659,0.0004882813,0.9692383,-0.3046875,1.037598,0.1831055,-0.1831055,104.0076,0.04943848,157.7362,59.83333,-85.375,79.30833,1
2979,-0.004882813000000001,0.9663086,-0.3154297,0.7324219,-0.1831055,-0.42724609999999996,104.4141,0.1757813,157.7637,60.01667,-84.95834,79.51667,1
3269,-0.017089840000000002,0.9658203,-0.2993164,2.563477,0.9765625,-0.5493163999999999,104.5129,0.28564449999999997,157.7747,60.125,-84.99167,79.54166,1
3569,-0.008789063,0.9575195,-0.3208008,5.981445,-7.324219,1.098633,105.3204,0.4394531,157.077,16.65833,-5.941667,0.5333333,1
3819,-0.022460940000000002,0.9682617,-0.3432617,0.4882813,-5.493164,0.3662109,106.2158,0.6317138999999999,155.918,16.55,-6.5,0.375,1
4090,-0.020996090000000002,0.9462891,-0.3310547,2.624512,8.728026999999999,-5.065918,106.6003,1.351318,157.5494,15.75833,-5.975,0.17500000000000002,1
4399,-0.08154297,0.9248046999999999,-0.35595699999999997,2.319336,-8.972168,6.164551,106.7651,1.5051269999999999,158.3514,15.96667,-5.975,0.2666667,1
4699,-0.02539063,0.9311522999999999,-0.32470699999999997,3.78418,3.234863,0.9765625,108.0835,1.098633,156.9177,17.80833,-6.433333,-1.166667,1
5039,-0.02294922,0.9721679999999999,-0.3032227,-5.126953,-4.150391,2.075195,107.3254,1.257935,155.885,16.95,-6.216667,-0.8083332999999999,1
5269,-0.01660156,0.9633788999999999,-0.3466797,-0.06103516,2.13623,-0.4882813,106.7542,0.8953857,156.5057,60.45,-83.925,80.53333,1
5509,-0.008300781,0.9404296999999999,-0.359375,-0.3051758,-1.6479489999999999,1.281738,106.7157,0.637207,156.5717,16.31667,-6.033333,0.008333334000000001,1
5749,-0.015625,0.9638671999999999,-0.34179689999999996,-1.7700200000000001,-0.9155272999999999,1.464844,106.7706,0.28564449999999997,156.8463,16.21667,-5.741667,-0.15833329999999998,1
5979,-0.0009765625,0.9458008,-0.3540039,0.12207029999999999,-2.746582,0.24414059999999999,106.507,0.34606929999999997,156.9507,60.025,-84.23333,80.40833,1
6229,-0.008300781,0.9589844,-0.34912109999999996,-0.6103516,-0.24414059999999999,1.403809,106.6937,0.24719239999999998,156.687,16.24167,-6.033333,-0.075,1
6479,0.005859375,0.9545897999999999,-0.3466797,-0.6103516,0.3662109,0.12207029999999999,106.5948,0.1098633,156.4728,16.35833,-5.825,-0.075,1
6729,-0.001953125,0.9545897999999999,-0.34082029999999996,-1.037598,0.0,-0.8544921999999999,106.3477,0.2526855,156.5826,16.38333,-5.758333,-0.1916667,1
6979,-0.00390625,0.9624022999999999,-0.3388672,-1.220703,-0.9155272999999999,-0.24414059999999999,105.9796,0.4119873,156.5442,60.125,-84.6,79.94167,1
7239,-0.008789063,0.9614258,-0.3295898,-0.3051758,0.0,0.0,105.8258,0.4614258,156.4618,16.4,-5.616667,0.05,1
7499,-0.001464844,0.9628905999999999,-0.33398439999999996,0.9155272999999999,-0.42724609999999996,0.3662109,105.9741,0.4119873,156.4563,16.4,-5.758333,0.15833329999999998,1
7799,-0.0009765625,0.9614258,-0.3359375,0.42724609999999996,0.06103516,0.06103516,106.1719,0.3515625,156.4343,16.39167,-5.8,-0.025,1
8129,-0.001464844,0.9619141,-0.3374023,-0.1831055,-0.06103516,0.06103516,106.2048,0.32409669999999996,156.33,16.38333,-5.716667,-0.01666667,1
8409,-0.004394531,0.9541016,-0.34179689999999996,-4.150391,0.6713867,-0.6713867,105.5457,0.4614258,156.3519,16.33333,-5.133333,0.05,1
8739,-0.008300781,0.9550780999999999,-0.331543,1.403809,-0.24414059999999999,-0.793457,105.4688,0.6481933999999999,156.5936,16.48333,-5.675,0.3333333,1
9020,-0.01220703,0.9599609,-0.3320313,0.6713867,-0.3051758,0.1831055,105.9137,0.6701659999999999,156.4948,16.425,-5.658333,0.075,1
10389,-0.015136720000000001,0.9565429999999999,-0.3378906,0.24414059999999999,0.3051758,0.0,106.2653,0.7196045,156.4618,60.65833,-84.325,79.94167,1
10729,-0.01171875,0.9565429999999999,-0.3378906,0.12207029999999999,0.3662109,-0.06103516,106.3202,0.736084,156.4783,16.34167,-5.766667,0.04166667,1
10939,-0.01171875,0.9545897999999999,-0.3378906,0.0,0.06103516,0.06103516,106.3916,0.7196045,156.4893,16.41667,-5.816667,-0.025,1
11209,-0.01367188,0.9565429999999999,-0.3393555,0.0,0.1831055,0.0,106.4246,0.736084,156.4893,60.61666,-84.18333,80.075,1
11449,-0.01416016,0.9584961,-0.34082029999999996,-0.12207029999999999,0.0,-0.12207029999999999,106.4575,0.7086182,156.4893,16.325,-5.816667,-0.01666667,1
11679,-0.01611328,0.9589844,-0.3378906,-0.1831055,-0.24414059999999999,0.0,106.4465,0.7305908,156.4783,16.35,-5.808333,0.008333334000000001,1
11939,-0.026367190000000002,0.9633788999999999,-0.3476563,0.1831055,1.159668,0.6713867,106.5344,0.7855225,156.4838,16.23333,-5.758333,-0.04166667,1
12219,-0.01953125,0.9565429999999999,-0.3466797,-0.12207029999999999,0.42724609999999996,0.4882813,106.5344,0.7635498,156.4838,16.3,-5.75,0.1,1
12519,-0.01025391,0.9565429999999999,-0.3398438,0.6103516,-0.42724609999999996,-0.3051758,106.5839,0.7800292999999999,156.4233,60.71667,-84.125,80.14167,1
12809,-0.01660156,0.9580078,-0.34082029999999996,-0.3051758,0.12207029999999999,0.24414059999999999,106.5839,0.7800292999999999,156.4288,60.71667,-84.2,80.00833,1
13089,-0.01464844,0.9555663999999999,-0.3378906,0.06103516,-0.06103516,0.0,106.5729,0.7745361,156.4288,16.33333,-5.816667,0.01666667,1
13329,-0.01269531,0.9565429999999999,-0.34179689999999996,0.1831055,-0.3662109,0.06103516,106.6608,0.7415771,156.4728,60.65,-84.19167,80.025,1
13629,-0.015136720000000001,0.9570312999999999,-0.3427734,0.06103516,-0.3051758,0.06103516,106.6882,0.7470703,156.4508,16.375,-5.833333,-0.06666667,1
13939,-0.01074219,0.9711913999999999,-0.34082029999999996,-0.24414059999999999,1.342773,0.4882813,106.6333,0.7141113,156.4124,60.71667,-84.26667,80.19167,1
14249,-0.0234375,0.9438477,-0.347168,-0.42724609999999996,-0.3662109,-0.12207029999999999,106.5839,0.7196045,156.3959,16.51667,-5.925,0.06666667,1
14559,-0.01464844,0.9628905999999999,-0.3383789,0.0,0.24414059999999999,0.06103516,106.6663,0.8129883,156.286,16.225,-5.833333,-0.01666667,1
14849,-0.01464844,0.9580078,-0.34130859999999996,-0.4882813,1.098633,0.1831055,106.6278,0.7196045,156.4783,16.28333,-5.766667,0.03333333,1
15219,-0.01611328,0.9609375,-0.3427734,0.0,0.12207029999999999,-0.24414059999999999,106.6553,0.7415771,156.5881,16.325,-5.866667,0.008333334000000001,1
15549,-0.01611328,0.9570312999999999,-0.3398438,-0.06103516,0.3051758,-0.06103516,106.6443,0.8129883,156.6046,60.6,-84.175,79.91666,1
15789,-0.01855469,0.9599609,-0.34179689999999996,-0.6103516,0.12207029999999999,0.06103516,106.6388,0.8239746,156.6431,16.26667,-5.8,0.03333333,1
15999,-0.015625,0.9570312999999999,-0.3378906,0.06103516,0.0,0.0,106.6608,0.8294678,156.6266,16.325,-5.825,0.05,1
16209,-0.015136720000000001,0.9570312999999999,-0.3427734,0.1831055,0.24414059999999999,0.0,106.7102,0.8239746,156.665,16.36667,-5.875,-0.008333334000000001,1
16419,-0.01318359,0.9589844,-0.3447266,-0.3662109,-0.4882813,0.0,106.7102,0.8404541,156.6376,16.48333,-5.941667,-0.3416667,1
16649,-0.005859375,0.9672852,-0.3139648,3.967285,-1.464844,-1.037598,106.4136,0.8789062999999999,156.6101,16.45833,-6.008333,0.01666667,1
16959,-0.03173828,0.9687500000000001,-0.34960939999999996,-2.075195,-0.12207029999999999,1.159668,106.5619,0.8734130999999999,156.709,60.53333,-84.2,79.9,1
17229,-0.01757813,0.9638671999999999,-0.3369141,0.0,1.89209,0.3051758,106.2543,0.6262207,156.676,60.49166,-84.54166,79.86667,1
17519,-0.01220703,0.9604492,-0.328125,-0.7324219,-0.12207029999999999,0.3051758,106.062,0.6481933999999999,156.5717,16.39167,-5.475,-0.08333334,1
17789,-0.006835938000000001,0.9609375,-0.3320313,0.06103516,0.1831055,0.0,105.9412,0.5712891,156.5497,16.425,-5.583333,0.05833333,1
18049,-0.01074219,0.9619141,-0.3310547,0.793457,0.4882813,0.24414059999999999,106.0675,0.4888916,156.709,60.38334,-84.6,80.175,1
18359,-0.007324219000000001,0.9555663999999999,-0.331543,1.525879,1.159668,0.12207029999999999,106.2817,0.4229736,156.8573,16.4,-5.858333,0.2333333,1
18629,-0.01269531,0.9599609,-0.3388672,2.13623,-0.4882813,-0.06103516,106.7651,0.4394531,156.8793,16.33333,-5.908333,0.225,1
18909,-0.01171875,0.9541016,-0.3525391,1.281738,0.6103516,0.1831055,107.2485,0.5163574,156.687,16.26667,-6.05,-0.008333334000000001,1
19219,-0.002929688,0.9565429999999999,-0.3525391,-0.42724609999999996,1.708984,-0.793457,107.2815,0.4284668,156.8298,16.25833,-6.066667,-0.025,1
19479,-0.001464844,0.9550780999999999,-0.3525391,-0.6713867,0.3662109,0.6713867,107.1771,0.19775389999999998,157.0935,60.13334,-84.05,80.59167,1
19829,-0.001464844,0.9555663999999999,-0.34130859999999996,-0.1831055,0.6713867,0.24414059999999999,107.0068,0.1043701,157.0551,16.35833,-5.933333,-0.2916667,1
20069,-0.009277344,0.9643554999999999,-0.3466797,2.01416,0.0,0.3051758,107.0343,0.1483154,157.1814,16.43333,-5.975,0.1333333,1
20370,-0.001953125,0.9541016,-0.3452148,0.4882813,0.12207029999999999,0.0,107.1606,0.1208496,157.0935,16.30833,-6.008333,0.075,1
20579,-0.001953125,0.9541016,-0.3452148,0.4882813,0.12207029999999999,0.0,107.1606,0.1208496,157.0935,16.25833,-5.975,-0.15833329999999998,1
20809,0.001953125,0.9506836,-0.347168,0.12207029999999999,0.0,0.0,107.1332,0.09338379000000001,157.1429,16.3,-5.958333,0.04166667,1
21069,-0.001953125,0.9570312999999999,-0.3378906,-0.4882813,0.42724609999999996,0.6103516,107.1277,0.054931640000000004,157.2473,60.00834,-84.21667,80.48333,1
21339,-0.001464844,0.9555663999999999,-0.3603516,-0.9765625,-2.441406,-0.06103516,106.9464,0.01647949,157.1924,16.31667,-5.783333,0.01666667,1
21579,-0.006835938000000001,0.9536133,-0.34033199999999997,-0.42724609999999996,-0.24414059999999999,0.1831055,106.7871,0.0,157.2363,60.01667,-84.38333,80.275,1
21879,0.004882813000000001,0.9584961,-0.3383789,-0.06103516,-0.24414059999999999,-0.06103516,106.7926,0.01098633,157.0496,60.0,-84.31667,80.45834,1
22170,-0.001464844,0.9555663999999999,-0.3432617,1.6479489999999999,-0.3051758,-0.5493163999999999,106.9464,0.027465820000000002,157.0441,16.30833,-6.033333,-0.01666667,1
22409,-0.005371094000000001,0.9584961,-0.3447266,0.9765625,0.1831055,-0.7324219,107.1057,0.1483154,156.9507,16.25833,-6.058333,-0.01666667,1
22719,-0.0004882813,0.9565429999999999,-0.3461914,-0.24414059999999999,0.0,0.06103516,107.0947,0.19775389999999998,156.9342,16.28333,-5.958333,0.025,1
23009,-0.005371094000000001,0.9555663999999999,-0.34863279999999996,-0.5493163999999999,-0.12207029999999999,0.0,107.0947,0.19226069999999998,156.9122,16.35,-5.95,-0.01666667,1
23319,-0.002441406,0.9560546999999999,-0.3442383,-0.06103516,0.12207029999999999,0.0,106.9849,0.13732909999999998,156.8958,16.28333,-5.841667,-0.03333333,1
23649,-0.004882813000000001,0.9575195,-0.3461914,0.0,-0.06103516,-0.06103516,106.9794,0.1263428,156.9452,16.33333,-5.891667,-0.01666667,1
23929,-0.00390625,0.9570312999999999,-0.3442383,-0.12207029999999999,0.0,-0.06103516,106.9574,0.14282229999999999,157.0221,16.29167,-5.816667,-0.008333334000000001,1
24329,-0.005859375,0.9584961,-0.3427734,0.1831055,0.06103516,0.0,106.9354,0.14282229999999999,157.0605,60.09167,-84.225,80.58334,1
24639,-0.0034179690000000003,0.9536133,-0.3442383,0.0,0.0,0.0,106.9354,0.1538086,157.066,16.33333,-5.891667,-0.01666667,1
24889,-0.005371094000000001,0.9545897999999999,-0.3432617,0.06103516,0.3051758,0.0,106.9354,0.1538086,157.0935,60.00834,-84.25,80.15,1
25159,-0.004394531,0.9555663999999999,-0.3466797,-0.1831055,0.06103516,0.0,106.9464,0.1538086,157.099,16.31667,-5.875,0.0,1
25410,-0.002929688,0.9555663999999999,-0.34375000000000006,0.0,0.3662109,0.0,106.9739,0.1483154,157.1265,16.275,-5.933333,-0.01666667,1
25629,-0.001953125,0.9555663999999999,-0.3452148,0.06103516,0.0,0.0,106.9794,0.14282229999999999,157.1594,59.95,-84.26667,80.61667,1
25919,-0.001464844,0.9560546999999999,-0.3452148,-0.06103516,-0.1831055,0.0,106.9849,0.14282229999999999,157.1704,16.29167,-5.883333,0.025,1
26229,-0.001953125,0.9521484,-0.3447266,0.42724609999999996,0.06103516,0.0,106.9629,0.14282229999999999,157.1759,60.08333,-84.25,80.58334,1
26499,-0.002441406,0.953125,-0.347168,0.06103516,0.0,0.0,106.9958,0.1483154,157.1649,59.975,-84.25,80.53333,1
27789,-0.0034179690000000003,0.9565429999999999,-0.3432617,-0.06103516,-0.12207029999999999,-0.1831055,106.864,0.19775389999999998,157.0001,16.29167,-5.825,-0.03333333,1
28039,-0.0078125,0.9609375,-0.3466797,0.12207029999999999,0.1831055,0.1831055,106.864,0.2252197,157.0441,16.53333,-6.108333,0.0,1
28269,0.0,0.9599609,-0.34179689999999996,0.0,0.0,-0.06103516,106.8091,0.19775389999999998,156.9891,16.3,-5.891667,-0.025,1
28509,-0.005371094000000001,0.9589844,-0.34375000000000006,0.6713867,-0.12207029999999999,0.06103516,106.9739,0.2197266,157.0386,60.325,-84.21667,80.56667,1
28809,-0.004394531,0.9545897999999999,-0.3457031,-0.3051758,0.1831055,-0.06103516,106.9904,0.2252197,157.0056,16.4,-5.933333,-0.075,1
29129,-0.005859375,0.9580078,-0.3427734,0.0,0.0,0.06103516,106.908,0.2087402,157.0605,16.3,-5.958333,0.0,1
29469,-0.001464844,0.9575195,-0.3466797,0.24414059999999999,-0.3051758,0.06103516,106.9409,0.2142334,157.088,16.29167,-5.933333,0.01666667,1
29759,-0.005859375,0.9536133,-0.34375000000000006,0.24414059999999999,0.0,-0.42724609999999996,106.9794,0.2307129,157.1649,16.30833,-5.95,0.025,1
30099,-0.005859375,0.9545897999999999,-0.34814449999999997,-0.06103516,0.42724609999999996,0.06103516,107.0123,0.3076172,157.0825,16.33333,-5.991667,0.05833333,1
30309,-0.01074219,0.9511719,-0.3452148,0.9155272999999999,0.5493163999999999,0.0,107.1057,0.2911377,157.0825,16.35,-5.95,-0.1166667,1
30559,-0.0009765625,0.9570312999999999,-0.35742189999999996,0.12207029999999999,-0.42724609999999996,-0.9155272999999999,106.853,0.269165,157.099,16.45,-5.425,0.1833333,1
30859,-0.01025391,0.9545897999999999,-0.3613281,2.319336,-0.06103516,-0.1831055,107.1332,0.4119873,157.1484,60.38334,-83.95,80.55833,1
31119,-0.0078125,0.9560546999999999,-0.34863279999999996,0.42724609999999996,0.9155272999999999,0.4882813,107.287,0.4174805,157.11,16.20833,-6.016667,-0.04166667,1
31339,-0.0009765625,0.9565429999999999,-0.347168,-0.4882813,0.06103516,0.06103516,107.1991,0.302124,157.2473,16.35833,-5.975,0.0,1
31659,-0.007324219000000001,0.9560546999999999,-0.3422852,-0.12207029999999999,-0.12207029999999999,-0.12207029999999999,107.1606,0.3625488,157.2253,60.30833,-84.0,80.625,1
31949,-0.008789063,0.9472655999999999,-0.34179689999999996,0.24414059999999999,0.1831055,0.12207029999999999,107.1716,0.401001,157.2144,16.28333,-5.958333,0.06666667,1
32279,-0.01025391,0.953125,-0.3476563,0.3051758,0.12207029999999999,0.0,107.276,0.3900146,157.2583,16.275,-5.958333,-0.09166667,1
32559,-0.009277344,0.9516602,-0.3388672,-0.5493163999999999,0.3662109,0.0,107.2156,0.37353519999999996,157.3132,16.2,-5.883333,-0.08333334,1
32859,-0.015625,0.9643554999999999,-0.3466797,-0.24414059999999999,-0.1831055,0.4882813,107.1552,0.4174805,157.3407,60.2,-84.04166,80.38333,1
33159,-0.015136720000000001,0.9526367,-0.3520508,-0.793457,0.12207029999999999,0.1831055,107.0837,0.4174805,157.4176,16.33333,-5.925,-0.05,1
33489,-0.00390625,0.9584961,-0.34863279999999996,-1.098633,-0.6103516,-0.3051758,106.8915,0.37353519999999996,157.3901,16.2,-5.833333,-0.05833333,1
33779,0.001953125,0.9584961,-0.3378906,-1.7700200000000001,-1.037598,0.24414059999999999,106.6168,0.4614258,157.3077,16.4,-5.725,0.075,1
34119,-0.011230470000000001,0.9526367,-0.34082029999999996,-1.281738,-1.342773,0.6103516,106.5839,0.39550779999999996,157.2913,16.35,-5.908333,0.05833333,1
34389,-0.01611328,0.9521484,-0.3320313,-0.7324219,0.3662109,0.06103516,106.496,0.3295898,157.3132,16.38333,-5.841667,-0.05833333,1
34749,-0.006347656,0.9589844,-0.3383789,0.3051758,0.1831055,-0.06103516,106.4575,0.2307129,157.3242,60.13334,-84.53333,80.21667,1
34979,0.002441406,0.9570312999999999,-0.3359375,-0.3662109,0.4882813,0.12207029999999999,106.474,0.1812744,157.3132,16.33333,-5.775,0.0,1
35259,-0.004394531,0.9599609,-0.3398438,0.12207029999999999,0.3051758,0.0,106.5234,0.1757813,157.3846,16.41667,-5.758333,-0.025,1
35479,0.0,0.9599609,-0.3374023,0.3662109,0.0,-0.1831055,106.5729,0.2087402,157.3792,60.15,-84.40833,80.4,1
35739,-0.004394531,0.9584961,-0.3442383,-0.3051758,-1.037598,0.06103516,106.5784,0.2142334,157.3737,16.36667,-5.783333,-0.04166667,1
35979,-0.001953125,0.9599609,-0.3354492,0.0,0.793457,0.12207029999999999,106.4905,0.1812744,157.3682,60.05833,-84.425,79.95834,1
36239,-0.004882813000000001,0.9609375,-0.3364258,-0.1831055,0.0,0.12207029999999999,106.452,0.1702881,157.4176,16.29167,-5.708333,0.08333334,1
36499,-0.002441406,0.9589844,-0.3374023,0.793457,0.06103516,0.0,106.5564,0.1757813,157.4615,60.10833,-84.35,80.2,1
36789,-0.0034179690000000003,0.9584961,-0.34179689999999996,0.0,0.0,0.0,106.6443,0.1702881,157.5165,16.35833,-5.841667,0.03333333,1
37099,-0.001464844,0.9580078,-0.34130859999999996,0.06103516,0.6103516,0.24414059999999999,106.6278,0.1263428,157.5879,60.11666,-84.35,80.44167,1
37409,-0.005859375,0.9599609,-0.34082029999999996,0.3662109,0.0,0.12207029999999999,106.6223,0.1318359,157.5879,16.36667,-5.833333,0.0,1
37739,-0.009277344,0.9594727,-0.3398438,0.3051758,0.0,0.12207029999999999,106.6553,0.1208496,157.5604,16.30833,-5.85,0.0,1
38010,-0.002441406,0.9599609,-0.3422852,0.3051758,-0.06103516,0.1831055,106.6772,0.1263428,157.5165,16.36667,-5.808333,-0.03333333,1
38259,-0.005371094000000001,0.9589844,-0.3442383,-0.06103516,-0.24414059999999999,0.0,106.6553,0.1318359,157.4945,16.35,-5.766667,0.025,1
38529,-0.002929688,0.9555663999999999,-0.3427734,0.0,0.24414059999999999,-0.12207029999999999,106.7047,0.14282229999999999,157.4615,16.30833,-5.833333,0.0,1
38839,-0.002441406,0.9594727,-0.34375000000000006,-0.24414059999999999,-0.06103516,-0.1831055,106.7047,0.1208496,157.4945,16.29167,-5.825,-0.05833333,1
39159,-0.0034179690000000003,0.9633788999999999,-0.3461914,0.0,0.0,0.12207029999999999,106.7047,0.1757813,157.5659,16.3,-5.841667,-0.09166667,1
39510,-0.00390625,0.9619141,-0.3476563,-0.06103516,1.403809,-0.1831055,106.6827,0.1538086,157.5385,16.325,-5.908333,-0.1666667,1
39709,-0.00390625,0.9619141,-0.3476563,-0.06103516,1.403809,-0.1831055,106.6827,0.1538086,157.5385,16.475,-5.658333,0.1,1
39929,-0.0004882813,0.9604492,-0.34179689999999996,0.7324219,-0.12207029999999999,-0.3662109,106.7157,0.19775389999999998,157.4396,16.35833,-5.766667,0.05833333,1
40189,-0.005371094000000001,0.9604492,-0.3452148,-0.1831055,-0.1831055,0.0,106.7761,0.2526855,157.478,16.26667,-5.983333,-0.03333333,1
40409,-0.005859375,0.9550780999999999,-0.3388672,-0.3051758,0.42724609999999996,-0.24414059999999999,106.7047,0.2581787,157.478,16.35,-5.85,-0.008333334000000001,1
40719,-0.004394531,0.9570312999999999,-0.3369141,-0.12207029999999999,-0.12207029999999999,0.3662109,106.6827,0.2362061,157.5275,60.00834,-84.30833,80.29166,1
41019,-0.006347656,0.9580078,-0.34082029999999996,-0.1831055,0.1831055,-0.06103516,106.6827,0.2416992,157.5604,16.35,-5.833333,0.0,1
41359,-0.001953125,0.9545897999999999,-0.3427734,-0.12207029999999999,0.3662109,0.0,106.6663,0.2416992,157.5275,16.33333,-5.8,0.008333334000000001,1
41619,-0.008300781,0.9560546999999999,-0.3427734,0.06103516,-0.3662109,0.0,106.7047,0.2581787,157.5549,60.10833,-84.35,80.24167,1
41899,-0.008300781,0.9584961,-0.3427734,-0.3662109,-0.42724609999999996,0.0,106.7157,0.2966309,157.4835,16.4,-5.891667,-0.1166667,1
42149,-0.006835938000000001,0.9580078,-0.331543,-1.403809,0.42724609999999996,0.3662109,106.2543,0.39550779999999996,157.4341,16.36667,-5.466667,0.05833333,1
42489,-0.005859375,0.9628905999999999,-0.3364258,1.098633,0.1831055,0.24414059999999999,106.3751,0.3570557,157.4341,16.3,-5.758333,0.01666667,1
42749,-0.006835938000000001,0.9570312999999999,-0.3388672,0.0,-0.1831055,-0.06103516,106.4575,0.3515625,157.4341,16.33333,-5.783333,0.06666667,1
43049,-0.007324219000000001,0.9584961,-0.34033199999999997,0.12207029999999999,0.06103516,0.0,106.5125,0.3625488,157.4615,16.36667,-5.816667,-0.03333333,1
43399,-0.006835938000000001,0.9614258,-0.3374023,0.0,0.1831055,0.0,106.5125,0.3515625,157.522,16.33333,-5.8,-0.04166667,1
43669,-0.009765625,0.9580078,-0.3354492,0.1831055,0.0,0.0,106.5234,0.3570557,157.5659,60.29167,-84.43333,80.19167,1
44029,-0.008789063,0.9575195,-0.3398438,0.24414059999999999,0.0,-0.12207029999999999,106.6333,0.401001,157.5659,60.25,-84.20834,80.29166,1
44289,-0.008300781,0.9594727,-0.3427734,-0.06103516,0.0,0.0,106.6498,0.401001,157.5879,16.34167,-5.808333,0.0,1
45529,-0.009765625,0.9594727,-0.34082029999999996,0.0,0.06103516,0.0,106.6772,0.40649409999999997,157.6483,16.3,-5.858333,-0.05,1
45739,-0.005859375,0.9550780999999999,-0.3398438,-0.1831055,-0.3051758,0.0,106.6388,0.4174805,157.6208,16.34167,-5.808333,-0.03333333,1
45949,-0.006835938000000001,0.9565429999999999,-0.3393555,0.24414059999999999,-0.12207029999999999,0.0,106.6443,0.4284668,157.5879,16.325,-5.833333,-0.01666667,1
46149,-0.007324219000000001,0.9565429999999999,-0.34033199999999997,0.06103516,-0.12207029999999999,0.0,106.6388,0.43396,157.5824,60.35833,-84.39167,80.375,1
46410,-0.006835938000000001,0.9565429999999999,-0.3422852,0.0,-0.12207029999999999,0.0,106.6443,0.44494629999999996,157.5385,16.35833,-5.833333,-0.05,1
46689,-0.015625,0.9575195,-0.3476563,-0.6103516,0.6103516,0.1831055,106.6058,0.4284668,157.6154,16.4,-5.766667,0.08333334,1
46959,-0.006347656,0.9599609,-0.34179689999999996,0.24414059999999999,0.0,0.0,106.6553,0.45593259999999997,157.6648,60.16667,-84.19167,80.16666,1
47250,-0.005371094000000001,0.9575195,-0.34033199999999997,0.0,-0.06103516,0.0,106.6553,0.45593259999999997,157.6813,16.33333,-5.816667,-0.008333334000000001,1
47479,-0.009765625,0.9580078,-0.34082029999999996,0.06103516,0.0,0.0,106.6443,0.4504395,157.6978,16.33333,-5.825,-0.008333334000000001,1
47779,-0.009277344,0.9545897999999999,-0.34130859999999996,0.42724609999999996,0.0,0.0,106.6498,0.45593259999999997,157.6978,60.25834,-84.24167,80.3,1
48069,-0.005371094000000001,0.9633788999999999,-0.34375000000000006,-0.42724609999999996,0.6103516,0.0,106.7102,0.4614258,157.7032,16.25,-5.783333,0.05833333,1
48379,-0.0009765625,0.953125,-0.33300779999999996,0.793457,-1.220703,-0.6713867,106.6608,0.45593259999999997,157.6813,60.275,-84.275,80.23333,1
48689,-0.007324219000000001,0.9550780999999999,-0.3383789,-0.42724609999999996,0.3051758,0.06103516,106.6553,0.4229736,157.7252,16.425,-5.875,0.05833333,1
49029,-0.008789063,0.9589844,-0.34179689999999996,0.12207029999999999,-0.1831055,0.12207029999999999,106.7157,0.4119873,157.7527,16.34167,-5.883333,-0.008333334000000001,1
49309,-0.009277344,0.9575195,-0.34082029999999996,-0.3051758,0.0,0.0,106.6772,0.4284668,157.7142,16.34167,-5.816667,-0.025,1
49669,-0.01025391,0.9545897999999999,-0.34082029999999996,-0.24414059999999999,-0.06103516,0.0,106.6388,0.4504395,157.6593,60.35,-84.30833,80.18333,1
49929,-0.009277344,0.9565429999999999,-0.3422852,-0.12207029999999999,-0.24414059999999999,0.0,106.6443,0.4504395,157.6648,16.39167,-5.816667,0.008333334000000001,1
50179,-0.007324219000000001,0.9545897999999999,-0.3398438,-0.06103516,0.0,0.0,106.6608,0.45593259999999997,157.6648,16.29167,-5.85,-0.025,1
50389,-0.009277344,0.9584961,-0.3383789,0.0,0.1831055,0.0,106.6553,0.45593259999999997,157.6758,60.30833,-84.36667,80.35833,1
50639,-0.009277344,0.9584961,-0.34033199999999997,0.0,0.0,0.0,106.6663,0.44494629999999996,157.7142,16.31667,-5.8,0.008333334000000001,1
50859,-0.005859375,0.9536133,-0.3388672,-0.06103516,0.3662109,0.0,106.6663,0.4284668,157.7802,60.325,-84.21667,80.225,1
51109,-0.0078125,0.9599609,-0.3383789,0.12207029999999999,-0.12207029999999999,0.0,106.6937,0.4284668,157.7966,16.33333,-5.858333,0.025,1
51399,-0.011230470000000001,0.9570312999999999,-0.34179689999999996,-0.12207029999999999,0.0,0.0,106.7157,0.4284668,157.7966,60.225,-84.20834,80.14167,1
51689,-0.007324219000000001,0.984375,-0.36523439999999996,-1.89209,3.2958979999999998,0.06103516,106.8036,0.5163574,157.8021,15.91667,-5.858333,-0.1416667,1
52009,-0.005859375,0.9462891,-0.3310547,0.9155272999999999,0.5493163999999999,0.24414059999999999,106.6333,0.4724121,157.7032,60.36666,-84.35833,80.05833,1
52319,-0.01269531,0.9609375,-0.34130859999999996,-0.3662109,-0.12207029999999999,0.3051758,106.864,0.4174805,157.7032,16.31667,-5.8,-0.1333333,1
52609,-0.009765625,0.9575195,-0.34082029999999996,0.0,-0.1831055,-0.3662109,106.7322,0.4229736,157.7252,60.225,-84.23333,80.2,1
52919,-0.008789063,0.9575195,-0.34179689999999996,0.0,0.3051758,0.06103516,106.7651,0.4504395,157.7142,16.34167,-5.833333,0.0,1
53250,-0.009277344,0.9589844,-0.3432617,-0.5493163999999999,0.3662109,-0.06103516,106.7432,0.4394531,157.7582,16.29167,-5.85,0.008333334000000001,1
53489,-0.009765625,0.9560546999999999,-0.34179689999999996,0.0,-0.12207029999999999,0.0,106.6937,0.4614258,157.7307,16.3,-5.866667,-0.04166667,1
53769,-0.01074219,0.9565429999999999,-0.3378906,-0.7324219,0.0,0.0,106.6223,0.4833984,157.6868,16.34167,-5.833333,-0.075,1
54049,-0.007324219000000001,0.9570312999999999,-0.3369141,-0.42724609999999996,0.0,0.0,106.4685,0.5053711,157.6318,16.36667,-5.716667,-0.008333334000000001,1
54379,-0.005859375,0.9545897999999999,-0.3359375,0.06103516,0.06103516,0.0,106.452,0.5218505999999999,157.6044,16.325,-5.716667,0.025,1
54629,-0.008789063,0.9580078,-0.34033199999999997,0.12207029999999999,0.3662109,0.0,106.5619,0.5108642999999999,157.6593,16.38333,-5.808333,0.0,1
54899,-0.007324219000000001,0.9580078,-0.3383789,-0.12207029999999999,0.12207029999999999,0.0,106.5619,0.5053711,157.6868,16.35833,-5.775,-0.008333334000000001,1
55119,-0.01220703,0.9589844,-0.3383789,0.12207029999999999,-0.1831055,0.0,106.5619,0.5163574,157.7307,16.34167,-5.783333,0.03333333,1
55399,-0.009765625,0.9594727,-0.34033199999999997,-0.06103516,0.12207029999999999,-0.06103516,106.5729,0.5053711,157.7527,16.33333,-5.75,0.025,1
55629,-0.01025391,0.9570312999999999,-0.34130859999999996,0.0,0.06103516,0.0,106.6113,0.5053711,157.7911,60.26667,-84.29166,80.26667,1
55929,-0.01025391,0.9580078,-0.3374023,-0.12207029999999999,0.0,0.0,106.5839,0.5053711,157.8186,16.35833,-5.791667,0.0,1
56229,-0.01025391,0.9565429999999999,-0.3393555,0.0,0.0,0.0,106.6003,0.5108642999999999,157.8186,60.31667,-84.25833,80.10833,1
56529,-0.008300781,0.9580078,-0.3378906,0.12207029999999999,0.1831055,0.0,106.6058,0.5163574,157.8241,16.31667,-5.816667,0.01666667,1
56839,-0.01171875,0.9570312999999999,-0.34130859999999996,0.12207029999999999,0.0,0.0,106.6278,0.5163574,157.8296,16.325,-5.825,0.01666667,1
57079,-0.008300781,0.9560546999999999,-0.3422852,0.0,0.0,0.0,106.6498,0.5108642999999999,157.8571,16.30833,-5.808333,0.0,1
57359,-0.009765625,0.9584961,-0.34130859999999996,0.0,0.1831055,0.0,106.6608,0.5163574,157.8571,16.33333,-5.825,0.0,1
57659,-0.0078125,0.9604492,-0.34130859999999996,0.3051758,0.06103516,0.0,106.6608,0.5163574,157.8571,16.31667,-5.808333,0.05833333,1
57969,-0.009277344,0.9570312999999999,-0.34375000000000006,0.0,-0.06103516,0.0,106.7102,0.5218505999999999,157.8571,16.35,-5.808333,-0.03333333,1
58269,-0.009765625,0.9575195,-0.34130859999999996,-0.3662109,-0.12207029999999999,0.0,106.6608,0.5273438,157.8406,16.375,-5.8,-0.05,1
58569,-0.01074219,0.9565429999999999,-0.3378906,0.0,0.06103516,0.12207029999999999,106.6168,0.5218505999999999,157.8021,60.36666,-84.35833,80.19167,1
58899,-0.01171875,0.9560546999999999,-0.3393555,0.24414059999999999,-0.12207029999999999,0.1831055,106.6333,0.49438479999999996,157.7637,60.29167,-84.4,80.31667,1
59250,-0.009277344,0.9575195,-0.34179689999999996,-0.06103516,0.3051758,0.0,106.6608,0.45593259999999997,157.8241,16.33333,-5.8,0.025,1
59459,-0.0078125,0.9575195,-0.34130859999999996,-0.06103516,0.24414059999999999,0.0,106.6718,0.4394531,157.89,16.35,-5.816667,-0.04166667,1
59729,-0.004882813000000001,0.9575195,-0.3378906,-0.3662109,0.0,0.0,106.6443,0.44494629999999996,157.8955,16.33333,-5.8,0.0,1
59959,-0.01171875,0.9560546999999999,-0.3427734,0.3662109,0.0,0.0,106.6882,0.44494629999999996,157.923,60.20833,-84.26667,80.4,1
60199,-0.004882813000000001,0.9575195,-0.3432617,0.42724609999999996,0.5493163999999999,-0.12207029999999999,106.8091,0.4614258,157.879,16.3,-5.858333,0.03333333,1
60459,-0.0078125,0.9555663999999999,-0.3452148,0.0,-0.06103516,0.12207029999999999,106.8201,0.4614258,157.9285,16.33333,-5.866667,-0.01666667,1
60699,-0.0078125,0.9541016,-0.34082029999999996,-0.1831055,0.24414059999999999,0.0,106.7871,0.4504395,157.9395,16.35,-5.891667,-0.01666667,1
60949,-0.01025391,0.9550780999999999,-0.34179689999999996,0.06103516,0.0,0.0,106.8036,0.4614258,157.9395,60.34167,-84.24167,80.475,1
61239,-0.008300781,0.9565429999999999,-0.3427734,-0.12207029999999999,0.06103516,0.0,106.8201,0.4614258,157.9504,16.325,-5.833333,-0.01666667,1
61499,-0.009765625,0.9580078,-0.3432617,0.1831055,0.06103516,0.0,106.8201,0.4614258,157.9669,16.325,-5.883333,-0.01666667,1
62739,0.05419922,0.9726562999999999,0.3085938,8.117676,7.507324,-4.211426,70.01587,-1.345825,159.4446,15.25,3.691667,4.566667,1
62979,0.005859375,0.7216796999999999,0.1020508,45.34912,8.300781,-4.150391,80.68359,0.368042,161.1969,12.85,2.358333,5.433333,1
63280,-0.06787109,1.031738,-0.10839839999999999,7.873535,20.81299,-4.333496,87.79175,0.8294678,166.4539,58.46667,-91.43333,71.56667,1
63579,-0.1767578,0.9243163999999999,0.05224609,-4.638672,4.882813,-9.521484,87.82471,2.356567,167.1405,18.29167,-1.85,2.0,1
63909,-0.07080078000000001,0.9301758,-0.1035156,4.882813,-24.16992,-0.8544921999999999,89.10461,2.828979,164.4708,17.56667,-2.8,0.6666667,1
64209,-0.03564453,0.9877929999999999,-0.1879883,-12.3291,-16.23535,13.91602,89.13208,-0.1153564,159.7632,16.675,-3.908333,-2.283333,1
64579,0.07617188,0.9375,0.1870117,18.18848,8.239746,8.666992,87.82471,-0.9832763999999999,154.9457,59.83333,-93.04166,64.34167,1
64839,0.06933594,1.052734,-0.07958984,-6.896973,70.12939,2.624512,88.89038,-3.081665,166.0803,16.11667,-1.558333,-1.516667,1
65109,0.05908203,1.003418,-0.20947269999999998,16.41846,95.8252,-3.112793,88.0719,-2.087402,-167.6019,19.38333,-6.508333,2.9,1
65349,-0.1367188,1.257813,0.2275391,8.605957,33.56934,9.155273,90.39001,-2.400513,-154.7864,16.66667,1.883333,2.416667,1
65559,-0.048828130000000004,0.9721679999999999,-0.02197266,8.117676,20.56885,-17.63916,92.88391,-2.774048,-145.415,16.46667,-1.8333329999999999,-1.533333,1
65769,0.2958984,1.023926,-0.03320313,-11.1084,14.5874,5.67627,92.05444,-2.191772,-148.1946,34.70833,-93.68333,82.55833,1
66019,-0.11474609999999999,1.057617,0.17480469999999998,7.8125,-50.1709,-15.44189,95.08118,0.03845215,-148.689,38.09167,-92.1,84.55,1
66279,0.07958984,0.8720703,-0.009765625,-15.07568,34.91211,18.18848,94.40002,-1.268921,-148.9142,14.90833,-2.633333,0.425,1
66519,-0.1157227,1.063965,-0.3710938,-1.464844,28.93066,4.211426,94.54285,-0.4833984,-136.1096,19.50833,0.5083333,1.45,1
66779,0.05908203,0.9555663999999999,0.21777339999999998,-15.31982,77.20947,9.460449,95.24048,-3.90564,-127.8149,15.21667,-0.5166666999999999,-0.48333329999999997,1
67039,-0.1831055,0.8325195,-0.2739258,6.225586,-3.540039,5.065918,95.4657,-1.917114,-117.9657,20.38333,-2.616667,0.075,1
67339,-0.12744139999999998,1.239258,0.1420898,18.18848,-44.6167,-24.59717,100.1349,2.845459,-125.1617,17.54167,-1.341667,-2.691667,1
67599,-0.04638672,0.7954102,-0.246582,-9.70459,29.05273,-9.58252,96.37207,0.005493164,-122.7722,22.68333,-92.84167,84.06667,1
67869,0.2836914,1.296387,-0.3833008,24.96338,22.88818,5.67627,98.18481,0.38452149999999996,-117.5757,17.34167,5.0,2.9,1
68129,-0.03173828,0.8325195,-0.078125,-18.18848,-7.324219,-15.68604,98.62976,-1.021729,-116.7682,14.44167,-2.875,-1.3,1
68439,-0.1464844,0.9804687999999999,-0.5058594,15.13672,-22.70508,0.06103516,97.66296,-1.09314,-122.3438,18.09167,1.383333,3.408333,1
68760,0.02197266,0.8457030999999999,-0.09228516,-8.728026999999999,9.338379,21.54541,99.41528,1.175537,-127.4908,14.741670000000001,-2.575,-1.416667,1
69079,-0.08837891,0.9975586,-0.3193359,2.868652,17.94434,4.272461,99.68445,-0.1098633,-119.8993,25.78333,-1.308333,3.5,1
69309,-0.06640625,0.871582,-0.09082031,-16.96777,0.6103516,-20.69092,101.6016,-2.493896,-114.4995,17.04167,-90.00833,85.95834,1
69549,-0.1030273,0.9204102,-0.24072269999999998,-0.1831055,-29.66309,8.178711,99.73389,-1.208496,-117.2406,17.675,-3.333333,-0.7166667,1
69819,-0.1118164,1.222656,0.0625,10.19287,-28.80859,-19.65332,100.7996,1.972046,-122.3877,24.23333,-91.0,87.35,1
70099,0.03515625,0.7836913999999999,-0.05957031,-13.85498,33.87451,9.277344,99.03625,-0.2142334,-119.7949,13.21667,-4.0,0.7833333,1
70309,0.020996090000000002,1.223145,-0.2001953,7.751465,22.46094,-8.422852,101.1731,0.5987549,-113.2086,23.83333,-4.366667,2.725,1
70539,-0.1367188,1.068848,-0.06982422,-6.835938,-4.699707,-18.06641,102.1948,-3.257446,-114.0601,17.35,-89.58334,86.05,1
70809,-0.001953125,1.016113,-0.13525389999999998,4.760742,-10.98633,3.845215,99.07471,-1.488647,-118.2953,18.46667,-6.958333,2.916667,1
71139,0.23291019999999998,1.135742,-0.1362305,-1.8310549999999999,-12.26807,16.8457,101.1182,2.5872800000000002,-126.1285,26.03333,-90.46667,87.375,1
71469,0.1933594,1.0,-0.11669919999999999,0.42724609999999996,41.68701,-19.77539,98.45947,0.2087402,-119.5917,20.94167,-8.116667,2.016667,1
71869,-0.09863281,0.7583008,-0.08642578000000001,-13.24463,5.126953,-23.4375,100.5194,-1.686401,-108.4955,13.23333,-3.441667,-1.983333,1
72169,-0.34033199999999997,1.169922,-0.3681641,20.50781,-23.80371,-5.737305,98.8385,-0.4119873,-117.7679,16.4,3.766667,0.5750000000000001,1
72450,0.2509766,1.104004,-0.06738281,2.075195,-14.89258,17.39502,99.95911,2.845459,-123.2227,12.51667,-0.4166667,-2.083333,1
72679,0.2983398,1.058105,-0.1762695,-1.8310549999999999,34.91211,-14.28223,99.31641,1.230469,-122.1075,21.35,-5.366667,4.408333,1
73009,-0.25439449999999997,1.223633,-0.12207029999999999,-7.141113,33.75244,-20.69092,101.8542,-3.345337,-113.736,12.991670000000001,-0.6916667,-3.791667,1
73339,0.09423828000000001,1.26709,-0.1357422,-4.211426,-18.55469,-3.417969,99.45923,-1.609497,-118.5919,25.33333,-1.008333,-0.9833333999999999,1
73599,0.2246094,1.041992,-0.06445313,-12.39014,2.807617,25.6958,101.2775,1.691895,-122.3602,13.28333,-0.375,-2.041667,1
73909,-0.0859375,1.168945,-0.23632809999999999,7.202148,-2.990723,2.807617,100.6787,-0.7580566,-114.5874,21.325,-1.066667,3.525,1
74149,0.3696289,1.316895,0.3056641,33.02002,41.50391,13.85498,103.8593,-4.806519,-113.6591,16.65,-2.125,-2.633333,1
74369,-0.04345703,0.8203125,-0.2583008,4.089355,-29.96826,11.41357,101.3159,-0.8294678,-113.8788,21.04167,-3.225,-0.3333333,1
74639,-0.27880859999999996,1.258301,-0.15039059999999999,0.4882813,-17.94434,1.342773,103.7109,-0.03845215,-119.0039,21.49167,2.358333,1.358333,1
74869,0.04541016,0.7924804999999999,-0.09863281,-31.79932,44.67773,7.995605,100.2942,-0.40649409999999997,-118.1195,14.90833,-3.358333,-0.9083334,1
75159,0.41845699999999997,1.266602,-0.30175779999999996,11.47461,27.34375,2.929688,101.5411,-1.680908,-108.7866,14.7,-90.88333,84.25833,1
75459,0.046875,0.7617187999999999,-0.15478519999999998,-26.12305,-23.80371,-18.55469,102.1783,-0.3131104,-109.0613,16.90833,-91.275,84.53333,1
75789,-0.3432617,1.333984,-0.30273439999999996,15.25879,-12.93945,-11.35254,101.9366,1.087646,-114.4006,20.25833,-91.10833,85.88333,1
76079,0.05810547,0.7490234,-0.04150391,-30.09033,15.13672,14.5874,99.46472,0.1538086,-115.8508,12.49167,-2.983333,-1.725,1
76409,0.284668,1.38916,-0.3852539,27.52686,-13.30566,10.13184,99.44275,0.1593018,-110.6268,16.44167,8.541667,1.766667,1
76669,-0.03417969,0.7353516,-0.09716797,-14.28223,-18.85986,-10.49805,99.59106,-0.8404541,-108.6658,15.98333,-92.36667,82.30833,1
76969,0.3110352,1.475098,-0.2744141,1.098633,-16.47949,-5.554199,101.9806,-1.444702,-118.2458,24.025,-0.31666669999999997,-0.4,1
77219,0.22900389999999998,1.040527,-0.07958984,-16.29639,0.12207029999999999,25.08545,102.7441,3.317871,-123.5413,11.7,0.08333334,-3.583333,1
77499,0.01318359,1.310059,-0.1210938,-9.58252,17.63916,2.929688,100.5688,0.8459473,-115.6036,23.36667,-4.308333,1.891667,1
77829,-0.1831055,1.141113,-0.04785156,-2.258301,-13.67188,-32.04346,102.1564,-3.24646,-114.5764,13.01667,-2.25,-2.0,1
78109,0.1796875,1.247559,-0.12744139999999998,6.164551,-1.281738,-4.760742,100.1404,-1.576538,-120.1904,24.15833,-2.016667,1.8333329999999999,1
78479,0.04394531,0.7187500000000001,-0.08349609,-17.08984,29.84619,14.5874,99.39331,-0.1483154,-118.2623,14.025,-3.941667,-0.2583333,1
78759,-0.12255859999999999,1.159668,-0.2480469,13.61084,-14.89258,14.83154,100.5084,0.2966309,-112.4176,21.35833,2.275,2.841667,1
78989,0.06445313,1.453613,0.1157227,8.850098,18.49365,4.882813,104.3152,-4.839478,-112.6483,14.94167,-0.8166667,-2.816667,1
80209,-0.06787109,0.7451171999999999,-0.1259766,-27.40479,-16.17432,-22.94922,102.9364,-4.059448,-107.4298,13.70833,-90.24167,82.75,1
80469,-0.3554688,1.146973,-0.3603516,13.73291,-28.56445,-12.51221,102.2168,-2.427979,-111.8298,15.81667,-90.64167,83.75833,1
80709,0.1079102,1.177246,-0.08740234,-3.662109,10.62012,18.12744,103.1946,2.449951,-113.1976,12.83333,-0.2333333,-4.083333,1
81000,-0.03955078,0.6875,-0.1279297,-10.49805,29.05273,-5.126953,98.39355,-0.6207275,-109.7369,21.26667,-1.925,0.6583333,1
81210,-0.03955078,0.6875,-0.1279297,-10.49805,29.05273,-5.126953,98.39355,-0.6207275,-109.7369,16.375,4.475,1.8,1
81429,0.028808590000000002,0.7226562999999999,-0.06982422,-11.23047,-19.9585,-13.24463,100.1624,-0.32409669999999996,-108.501,11.31667,-4.283333,1.375,1
81709,-0.2641602,1.305176,-0.20947269999999998,13.73291,-15.80811,-17.7002,102.0905,1.142578,-115.8014,21.33333,-90.75,84.2,1
81969,0.24951169999999998,1.119141,-0.13476559999999999,-9.94873,-3.173828,27.70996,102.9968,3.087158,-118.6194,12.63333,-0.6416666999999999,-3.75,1
82209,0.08496094,1.210938,-0.2202148,-2.380371,17.8833,5.737305,100.5688,1.241455,-114.6533,20.75833,-91.7,81.98333,1
82509,0.1264648,1.452148,0.11865229999999999,23.07129,6.835938,32.89795,103.3649,-3.427734,-114.7192,18.28333,-1.316667,-2.325,1
82759,0.015625,0.8085937999999999,-0.1323242,-12.20703,-74.09668,18.06641,99.36035,-0.7196045,-123.9917,19.35,-6.866667,0.3083333,1
83049,-0.1230469,1.365234,0.08105469,11.65771,-9.277344,-13.3667,101.5411,2.768555,-128.2983,16.96667,-0.4583333,-3.133333,1
83349,-0.07763672,0.7832030999999999,-0.18212889999999998,-6.591797,29.35791,-17.08984,98.48145,-0.9558105,-118.2349,19.975,-5.333333,1.133333,1
83669,0.1650391,1.616211,0.046875,20.08057,29.66309,10.98633,101.8817,-3.90564,-114.093,16.8,-1.683333,-0.525,1
83989,-0.1401367,0.8388671999999999,-0.17480469999999998,1.037598,-46.08154,17.82227,100.4919,-0.03845215,-117.6965,20.08333,-9.016666,1.183333,1
84229,0.02587891,1.354004,-0.015625,-4.150391,-45.41016,2.380371,102.7277,3.12561,-124.986,27.19167,-90.16666,85.3,1
84459,0.1264648,0.6660155999999999,-0.08105469,-21.3623,21.72852,8.789063,98.34412,0.3625488,-126.4691,14.83333,-1.925,0.6000000000000001,1
84699,-0.10839839999999999,1.003906,0.1811523,13.12256,8.483887,20.75195,101.3489,-0.7196045,-120.4871,22.30833,-90.56667,83.26667,1
84939,0.002929688,0.7602538999999999,-0.07177734,-14.83154,-6.530762,-16.90674,101.1237,-0.9613037,-120.3223,10.925,-2.908333,-0.6666667,1
85229,-0.11425779999999999,1.099121,-0.1630859,20.69092,-29.1748,29.47998,101.5521,-1.153564,-123.5852,22.35833,-4.483333,4.916667,1
85469,0.16650389999999998,1.109375,-0.07470703000000001,-5.065918,18.79883,16.23535,103.3374,3.3728029999999998,-121.5967,12.19167,-0.7666666999999999,-3.875,1
85709,-0.05371094,0.7402344,-0.1879883,-5.859375,14.83154,-10.13184,99.43176,-0.18676759999999998,-118.3942,18.81667,-1.858333,0.9666665999999999,1
85959,0.17382809999999999,0.8964844,0.38134769999999996,4.821777,22.46094,33.44727,102.3102,-1.658936,-118.5809,20.31667,-88.875,83.73333,1
86259,0.0004882813,0.6743163999999999,-0.2382813,3.112793,-37.90283,12.45117,100.437,0.01098633,-119.3829,23.25833,-2.175,1.041667,1
86529,-0.1499023,1.3310549999999999,0.05712891,29.05273,-28.44238,-27.771,104.2548,3.416748,-125.8759,28.86667,-88.45834,85.71667,1
86849,0.1494141,0.7197266,-0.08105469,-23.74268,28.74756,10.92529,101.4532,0.8404541,-126.1285,11.84167,-3.316667,-1.225,1
87100,-0.04003906,1.228027,0.1494141,16.41846,-19.34814,25.81787,101.7554,-0.2362061,-120.0366,28.00833,-0.85,2.175,1
87369,-0.09863281,0.6303711,-0.1235352,-25.63477,-48.64502,-2.075195,101.7169,0.7415771,-121.0748,13.44167,-4.708333,2.708333,1
87739,0.17822269999999998,1.331543,-0.1030273,5.432129,-31.18896,14.46533,103.7164,5.756836,-135.3845,35.06667,-88.40833,85.56667,1
88069,0.1728516,1.155273,-0.08300781,18.49365,26.61133,-12.3291,99.41528,2.032471,-129.7101,30.95,-91.025,82.45834,1
88440,-0.2041016,1.265625,-0.03222656,15.625,13.91602,-13.85498,102.3926,-2.103882,-127.3151,15.16667,-0.9916666999999999,-0.5750000000000001,1
88629,-0.01367188,0.6723633,-0.175293,-6.9580079999999995,-49.80469,0.6713867,100.1294,2.230225,-132.2314,15.61667,-1.175,0.5416667,1
88849,-0.2197266,1.209473,-0.4951172,21.54541,-32.40967,-8.605957,101.9531,2.839966,-141.3666,15.65,1.75,-0.01666667,1
89059,0.004394531,0.7871094,-0.01464844,-19.28711,-4.882813,20.62988,101.2885,2.911377,-148.7274,40.50834,-89.05833,83.65833,1
89299,0.265625,1.095215,-0.1650391,5.92041,49.62158,-20.93506,100.9589,1.8951419999999999,-144.624,18.79167,-8.083333,-0.31666669999999997,1
89550,-0.253418,0.8149413999999999,0.2680664,6.774902,-10.92529,18.73779,100.481,0.3515625,-143.3826,21.625,0.9500000000000001,1.308333,1
89760,-0.09619141,0.8720703,-0.04150391,-19.77539,-29.41895,-13.85498,101.0028,0.7305908,-144.8712,11.24167,-2.3,-2.191667,1
89979,-0.24414059999999999,1.114258,-0.5820312999999999,24.96338,-27.771,-8.361816,100.0305,1.922607,-157.8735,14.69167,0.9083334,0.375,1
90289,-0.01416016,0.8994141,-0.007324219000000001,-23.01025,0.0,11.90186,99.44824,3.554077,-159.5984,46.76667,-89.95,80.19167,1
90549,0.1210938,0.7910155999999999,-0.2436523,16.17432,27.771,-14.5874,97.65747,2.246704,-156.0992,22.54167,-7.125,1.175,1
90810,0.190918,0.7861328,0.048828130000000004,26.97754,26.30615,5.004883,99.95911,0.27465819999999996,-156.0333,20.15,2.158333,0.1916667,1
91039,-0.04199219,0.7075195,-0.1411133,-12.02393,-34.97314,1.037598,98.55835,1.054688,-156.5826,16.39167,-1.7083329999999999,0.5,1
91319,0.4448242,1.089844,0.1806641,14.03809,-41.01563,-22.46094,99.56909,1.389771,-166.4154,21.56667,-0.1416667,1.358333,1
91579,0.09326172,0.7631836,-0.05419922,-10.74219,43.21289,6.774902,97.04224,-0.5273438,-164.729,46.98333,-91.24167,78.04166,1
91899,-0.2158203,1.019531,0.2929688,14.34326,10.37598,13.42773,98.88794,-0.3625488,-157.2089,21.15833,0.15833329999999998,2.975,1
92209,-0.1298828,0.6870117,-0.10058589999999999,-10.92529,-20.20264,-2.563477,99.32739,1.625977,-155.8081,16.6,-2.2,2.15,1
92539,0.2988281,1.089844,0.1542969,3.051758,-11.96289,-30.63965,101.9366,3.592529,-161.7572,21.975,-1.658333,1.091667,1
92849,0.02832031,0.7075195,-0.10498049999999999,-14.5874,15.74707,0.42724609999999996,98.88245,1.691895,-162.2186,15.325,-1.7,0.975,1
93069,0.3051758,1.278809,-0.39501949999999997,13.73291,-12.69531,3.662109,100.2942,2.010498,-161.3672,13.991670000000001,3.616667,1.508333,1
93299,-0.03271484,0.8413086,-0.05175781,-6.591797,-31.61621,-16.35742,100.9644,1.087646,-163.2678,12.4,-3.191667,-1.1,1
93570,-0.13916019999999998,1.099121,-0.1254883,2.13623,-27.9541,19.16504,100.3656,1.82373,-170.5023,18.24167,-8.158334,1.566667,1
93779,0.08837891,0.9936522999999999,0.1323242,2.075195,-27.64893,-24.53613,100.6842,3.795776,-174.6002,20.63333,-0.47500000000000003,1.275,1
94030,0.04345703,0.6733397999999999,-0.1118164,-15.74707,20.01953,1.098633,97.80029,1.307373,-177.0447,14.70833,-2.633333,0.5166666999999999,1
94309,0.1264648,0.9536133,0.25,7.69043,9.155273,27.03857,100.4645,-1.5271000000000001,-171.936,51.28333,-89.71667,79.61667,1
94599,-0.03613281,0.6596679999999999,-0.1713867,-4.394531,-35.03418,11.65771,97.8772,0.14282229999999999,-176.5173,19.05833,1.05,0.65,1
94909,-0.03613281,1.087891,0.1708984,10.55908,-24.90234,-31.18896,101.2115,2.081909,178.0499,58.34167,-88.50833,76.16666,1
95199,-0.1113281,0.6079102,-0.1601563,-11.23047,42.41943,-4.333496,96.92139,-0.401001,-173.3203,53.675,-90.44167,77.35,1
95490,0.1733398,1.380859,-0.38085939999999996,14.22119,7.8125,-3.112793,98.72864,0.09338379000000001,-167.8546,19.31667,5.45,3.758333,1
95719,-0.09765625,0.7080078,-0.06689453000000001,-14.83154,-26.06201,-19.28711,99.03076,0.5822754,-166.6846,52.20833,-89.0,80.45,1
97009,-0.12207029999999999,0.9277344,-0.1103516,16.6626,-59.93652,10.25391,99.31091,2.301636,170.5078,61.03333,-89.19167,71.575,1
97299,0.41259769999999996,1.119629,0.10058589999999999,37.59766,-55.7251,-22.76611,101.4038,5.339355,161.1694,21.96667,-0.9083334,1.775,1
97569,-0.01171875,0.5927734,-0.08496094,-7.019043,38.26904,3.356934,98.28369,2.1698,159.3896,15.64167,-1.325,-0.36666669999999996,1
97869,-0.17382809999999999,0.7509766,0.3041992,9.94873,7.995605,25.63477,99.86023,1.104126,162.6526,19.925,1.525,2.316667,1
98169,0.06542969,0.7124022999999999,-0.1708984,-6.774902,-55.60303,-0.1831055,99.20654,2.092896,157.5385,16.13333,-1.741667,-0.9416667,1
98469,-0.1357422,1.072266,0.10888669999999999,15.68604,-49.01123,-8.239746,100.7886,4.5593259999999995,149.2273,19.91667,-0.225,-0.44166669999999997,1
98709,0.06982422,0.6547852,0.04296875,-21.66748,27.46582,17.21191,98.24524,1.906128,147.9474,12.90833,-2.891667,1.3,1
98919,0.2197266,1.276367,-0.3549805,5.371094,6.347656,4.821777,98.82202,0.802002,161.1694,62.475,-89.90833,65.68333,1
99159,-0.159668,1.164551,0.03320313,7.93457,9.58252,-23.25439,99.46472,-1.9885249999999999,162.1582,13.95,-0.8,-1.241667,1
99399,-0.06591797,0.6459961,-0.1811523,-2.01416,-8.361816,6.408691,98.07495,0.9283446999999999,162.4384,19.06667,-1.975,1.975,1
99619,0.25537109999999996,1.088379,0.2817383,-2.685547,-18.00537,-20.93506,99.93164,2.861938,155.1489,64.625,-88.85833,62.75,1
99869,-0.008300781,0.7211913999999999,-0.015136720000000001,-14.28223,5.7983400000000005,14.5874,98.86047,1.994019,153.9789,14.0,-3.008333,-0.09166667,1
100149,0.06005859,1.226563,-0.4306641,13.67188,-6.164551,10.86426,100.3381,0.1593018,160.2136,62.45833,-89.725,64.53333,1
100419,-0.01904297,0.7807617,-0.08691406,-12.69531,-13.12256,-14.5874,101.0687,-0.005493164,161.543,62.73333,-89.18333,65.99167,1
100719,-0.09667969,1.217285,-0.109375,17.33398,-13.97705,8.605957,102.0905,-0.4833984,157.3242,18.71667,-6.266667,3.125,1
100969,0.27099609999999996,1.1875,-0.13916019999999998,-0.3662109,-0.42724609999999996,12.146,104.2767,3.718872,156.8848,65.91666,-88.0,64.03333,1
101229,0.1191406,1.105469,-0.2734375,5.554199,19.47021,-2.075195,101.3269,1.279907,164.4763,65.05,-88.71667,65.71667,1
101529,0.22216799999999998,1.494141,0.1411133,28.62549,25.20752,25.87891,103.1561,-2.39502,164.8334,17.75,-1.2,-1.383333,1
101789,-0.07275391,0.7373046999999999,-0.20556639999999998,-5.126953,-54.62646,14.64844,100.7996,0.7141113,159.9884,21.91667,-9.275,-0.2833333,1
102069,0.01611328,1.224609,0.06152344,0.6103516,-16.11328,-11.2915,101.0248,4.438477,153.3142,13.8,-0.5583332999999999,-2.3,1
102399,0.1777344,0.8886719,-0.13916019999999998,17.45605,39.0625,-20.93506,100.2393,0.9173583999999999,157.8076,20.53333,-6.625,0.55,1
102709,0.10498049999999999,1.513184,0.02148438,-0.1831055,-9.460449,6.835938,103.7219,-3.175049,157.7582,15.05,-1.8666669999999999,-1.883333,1
102929,-0.105957,0.65625,-0.1831055,-13.30566,-25.81787,-1.7700200000000001,101.8378,0.1043701,155.7477,16.66667,-2.6,-0.35000000000000003,1
103159,0.3520508,1.052734,0.121582,-4.02832,-25.75684,-18.79883,102.03,1.521606,149.5459,69.14167,-85.03333,62.63334,1
103400,0.0,0.65625,-0.03808594,-27.34375,18.43262,10.31494,99.62952,1.071167,148.5901,13.06667,-2.775,-0.8416665999999999,1
103650,0.2260742,0.9492187999999999,-0.12744139999999998,13.12256,46.875,-18.24951,99.78333,1.027222,154.9017,19.03333,-9.183333,1.275,1
103839,-0.2001953,1.244141,-0.03515625,19.59229,28.86963,-21.42334,103.7329,-3.3673100000000002,158.7469,63.875,-83.45834,71.46667,1
104099,-0.07470703000000001,0.5268554999999999,-0.1958008,-17.94434,-46.69189,8.056641,100.6897,-0.2252197,156.5112,22.75833,-2.633333,1.433333,1
104379,-0.10058589999999999,1.090332,0.07617188,28.86963,-58.59375,-25.6958,102.7881,3.389282,146.8268,65.575,-82.59167,63.74166,1
104649,0.04638672,0.7734375,-0.2749023,7.141113,32.16553,-8.728026999999999,100.849,-0.4284668,147.8979,62.15833,-85.16666,63.75,1
104949,-0.017089840000000002,1.39209,-0.015625,29.66309,0.0,8.972168,103.6121,-1.6754149999999999,152.5562,26.025,0.17500000000000002,0.9833333999999999,1
105209,-0.12451169999999999,0.5966796999999999,-0.052734380000000004,-27.52686,-26.36719,5.981445,99.70642,-1.1920169999999999,156.6211,15.06667,-5.991667,4.616667,1
105479,0.1601563,0.9941405999999999,0.1040039,14.95361,-22.82715,-29.90723,102.865,1.625977,152.243,64.59167,-85.51667,63.5,1
105859,0.152832,1.083008,-0.09521484000000001,12.45117,49.19434,-14.77051,100.3326,0.04943848,159.9225,63.00834,-87.075,65.85833,1
106149,0.08251953000000001,0.9873046999999999,0.2963867,6.896973,22.3999,42.5415,101.8762,-3.504639,160.9497,20.41667,-1.5833329999999999,-0.2666667,1
106419,-0.13476559999999999,0.8032227,-0.17480469999999998,-6.530762,-25.57373,10.43701,100.4755,-0.6811522999999999,161.9659,23.21667,-2.625,0.625,1
106729,-0.13916019999999998,1.3666989999999999,-0.05224609,10.62012,-20.75195,-0.5493163999999999,103.8428,3.120117,157.1539,15.09167,-0.4166667,-3.983333,1
107019,0.03710938,0.7626953,-0.3139648,16.11328,21.97266,-15.625,101.3324,-0.32409669999999996,162.1582,18.075,-8.208333,-1.366667,1
107370,-0.09423828000000001,1.211426,-0.0009765625,-3.234863,22.88818,-14.46533,103.2715,-4.400024,164.7839,14.01667,-1.058333,-2.4,1
107569,-0.10107419999999999,0.6650391,-0.1791992,-16.41846,-39.73389,0.12207029999999999,99.67346,-0.9063721,163.5425,17.01667,-1.716667,1.441667,1
107789,-0.3134766,1.049805,-0.5629883,17.94434,-38.26904,-1.586914,101.2939,-0.1538086,156.9177,20.13333,2.916667,1.083333,1
108019,-0.3134766,1.049805,-0.5629883,17.94434,-38.26904,-1.586914,101.2939,-0.1538086,156.9177,13.30833,-0.6000000000000001,-4.05,1
108229,0.109375,1.033203,-0.13476559999999999,-2.13623,51.94092,-3.234863,99.67896,-2.054443,163.6523,21.7,-3.216667,2.525,1
108469,0.440918,1.298828,0.2539063,40.2832,55.7251,23.19336,102.4475,-4.476929,165.4816,18.225,0.3833333,-1.416667,1
108699,-0.01464844,0.637207,-0.22949219999999998,7.93457,-52.30713,8.361816,101.6949,-0.9887695,162.5043,22.05,-6.691667,-0.8916666,1
109009,-0.1538086,1.488281,-0.022460940000000002,11.53564,-47.42432,-4.577637,104.057,3.691406,151.5125,66.60833,-86.88333,64.91666,1
109299,0.1694336,0.8520508,-0.15039059999999999,-0.4882813,42.29736,-17.08984,99.73938,0.6591796999999999,154.9567,64.55,-88.61667,65.26667,1
109579,-0.20605469999999998,1.066895,0.1523438,27.28271,-12.02393,35.94971,101.5796,-0.9613037,156.6431,20.90833,0.2333333,0.725,1
109819,0.03271484,0.715332,-0.1708984,-1.708984,-35.09521,-3.051758,100.1294,-0.44494629999999996,157.7582,63.21667,-88.85833,66.36667,1
110129,0.07568359,1.2685549999999999,0.18603519999999998,18.73779,-39.91699,-21.60645,103.5571,2.861938,152.5836,20.78333,-1.483333,0.48333329999999997,1
110429,-0.01074219,0.6206054999999999,-0.1259766,-18.67676,33.99658,-8.300781,99.97559,0.2801514,153.8361,20.89167,-2.716667,1.091667,1
110739,0.2348633,1.23584,0.32519529999999996,25.57373,30.82275,28.44238,101.8982,-2.581787,158.4888,20.725,-2.216667,1.291667,1
111079,0.006835938000000001,0.6748046999999999,-0.16601559999999999,-0.3051758,-30.33447,11.16943,101.8542,-0.5438232,158.6261,22.69167,-8.991667,-0.6583333,1
111339,-0.1230469,1.316406,0.01660156,1.8310549999999999,-43.45703,-7.568359,102.3212,3.834229,148.4583,65.96667,-87.35,62.10833,1
111719,-0.3056641,1.220703,-0.3925781,8.483887,-20.38574,8.117676,99.72839,-0.01098633,158.0713,19.23333,1.358333,2.358333,1
112020,0.08398438,1.426758,0.07470703000000001,-7.080078,42.3584,1.464844,101.7664,-3.213501,159.2358,12.44167,0.45,-2.175,1
112219,0.08398438,1.426758,0.07470703000000001,-7.080078,42.3584,1.464844,101.7664,-3.213501,159.2358,18.38333,-1.783333,1.666667,1
112439,-0.05908203,0.921875,0.2460938,3.845215,-27.03857,-28.01514,100.6348,3.076172,150.8588,20.26667,-0.1916667,0.5833332999999999,1
112699,0.04003906,0.6967772999999999,0.03369141,-16.8457,38.0249,15.625,100.4425,1.609497,149.7546,11.81667,-2.725,-1.283333,1
113899,0.04150391,0.6708984,-0.07763672,-20.50781,9.338379,5.065918,98.88794,2.054443,150.0732,13.55,-2.883333,-0.8416665999999999,1
114120,-0.2617188,1.203125,-0.4140625,6.896973,33.26416,1.6479489999999999,99.51965,1.389771,156.1267,17.35,3.191667,3.575,1
114339,-0.05224609,0.8989258,-0.02197266,-13.42773,-8.422852,-24.35303,102.9419,-0.9448242,161.8945,11.61667,-1.475,-1.241667,1
114659,0.1401367,1.111328,-0.5131836,8.605957,-22.76611,-0.6713867,102.0905,1.7028809999999999,150.8093,66.175,-87.175,62.575,1
114969,-0.05566406,0.7036133,0.02539063,-22.94922,11.77979,28.56445,101.261,3.922119,145.0305,13.15833,-2.875,-1.566667,1
115279,0.1689453,1.167969,-0.1640625,19.40918,36.8042,6.04248,100.9589,0.9393311,149.9579,22.43333,4.1,1.766667,1
115539,-0.07617188,0.7324219,-0.06396484,-28.44238,12.75635,-4.333496,102.3267,-0.8734130999999999,160.3345,63.325,-87.35833,68.13333,1
115809,-0.1386719,1.113281,-0.05615234,-10.43701,-52.18506,-0.1831055,100.2942,0.8074950999999999,156.6266,21.54167,-4.725,1.875,1
116089,0.3139648,1.032715,-0.10498049999999999,-0.4882813,9.216309,25.81787,102.9694,4.520874,145.8325,11.83333,-2.883333,-1.125,1
116369,-0.020996090000000002,1.125977,-0.1953125,13.48877,-19.47021,18.12744,101.3654,1.8402100000000001,149.5514,23.65833,2.133333,5.475,1
116709,-0.1484375,0.8295897999999999,-0.002441406,-18.55469,9.277344,-33.02002,102.6343,-1.494141,157.1594,9.866667,-1.308333,-2.225,1
116969,0.0625,1.112305,-0.5742188,5.432129,-30.94482,-10.62012,101.0303,0.2307129,153.9294,20.98333,4.091667,3.0,1
117349,0.08154297,0.6655272999999999,-0.08935547,-7.080078,47.36328,7.507324,99.3988,-0.37353519999999996,149.3262,65.00833,-88.88333,60.38334,1
117609,0.10839839999999999,1.059082,-0.5874022999999999,16.60156,-1.953125,3.173828,101.5411,-0.9118651999999999,155.1599,19.925,5.533333,1.283333,1
117849,-0.2617188,1.287598,-0.1293945,17.39502,30.0293,-27.22168,104.2932,-4.279175,160.1147,12.06667,-1.141667,-1.266667,1
118069,-0.06787109,1.4375,-0.2875977,8.117676,-17.51709,5.310059,103.4143,0.5163574,155.1379,65.44167,-87.26667,65.35833,1
118299,-0.19384769999999998,1.601563,-0.01806641,-0.9765625,-48.52295,-4.699707,105.3589,4.971313,151.496,15.15,-0.125,-4.266667,1
118549,0.1098633,0.7216796999999999,-0.17431639999999998,11.53564,47.9126,-19.22607,100.1733,0.2581787,155.6323,65.45834,-87.6,63.56667,1
118799,-0.03662109,0.8730469,0.12451169999999999,7.263184,-9.155273,15.625,102.03,-0.2416992,154.8029,23.69167,1.175,-0.15833329999999998,1
119079,-0.030273440000000002,0.5927734,-0.1035156,-16.11328,-35.46143,5.432129,100.8105,0.7086182,150.7434,65.75833,-88.35833,60.35833,1
119369,0.3510742,1.078613,0.2236328,39.36768,-32.71484,-37.47559,102.9584,2.2796629999999998,145.849,21.44167,-1.075,0.3333333,1
119689,-0.01220703,0.6704102,-0.11279299999999999,-6.774902,52.73438,-0.9155272999999999,100.3986,-2.06543,154.5172,64.08334,-89.74167,63.31667,1
120009,0.2592773,0.7714844,-0.001953125,33.08105,0.8544921999999999,30.88379,103.9252,-2.268677,154.7205,18.375,0.7583333,-0.8083332999999999,1
120319,-0.07714844,0.6616211,-0.2070313,-7.507324,-40.46631,7.080078,101.9366,0.03845215,152.9517,20.0,-3.133333,1.325,1
120579,0.2011719,1.14502,0.2436523,16.05225,4.882813,-28.74756,104.6118,2.059937,146.3324,67.41666,-88.25,61.08333,1
120879,-0.1713867,0.6000977,-0.2026367,-10.00977,-27.46582,-3.967285,101.1566,-0.5328369,149.9579,65.875,-89.08334,60.59167,1
121179,-0.09765625,1.293945,0.1572266,32.2876,15.93018,66.8335,101.2555,-1.422729,155.5499,64.49167,-88.19167,64.81667,1
121489,-0.04394531,0.7226562999999999,-0.05029297,-20.38574,-13.91602,-9.765625,101.8488,0.03295898,160.8783,12.4,-4.683333,-0.7166667,1
121799,-0.25488279999999996,1.407227,-0.041015630000000004,24.4751,-47.05811,6.835938,103.222,4.729614,147.9968,69.68333,-84.66666,57.96667,1
122049,0.041015630000000004,0.6191405999999999,-0.06835938,-26.12305,15.50293,7.263184,100.069,0.8074950999999999,146.5302,12.4,-4.283333,0.4333333,1
122309,-0.171875,1.01123,0.05419922,41.62598,5.187988,53.95508,101.2775,-2.60376,151.6113,19.975,0.925,-4.816667,1
122580,-0.09960938,0.7211913999999999,0.02929688,-15.56396,-18.37158,-26.00098,100.3821,-2.5872800000000002,158.5822,11.425,-1.616667,-1.358333,1
122779,-0.1650391,0.7993163999999999,-0.5234375,7.995605,2.13623,-20.87402,101.6125,-0.39550779999999996,151.4026,69.60833,-85.025,59.5,1
123029,0.2836914,1.231934,-0.19775389999999998,-28.56445,-22.52197,30.2124,105.238,3.081665,148.623,12.41667,-1.033333,-5.258333,1
123309,-0.01171875,1.114258,-0.24121089999999998,-0.06103516,27.34375,4.394531,100.6512,0.2142334,158.0603,70.5,-83.25833,63.69167,1
123609,-0.1479492,0.9628905999999999,-0.03515625,-20.32471,-0.42724609999999996,-18.67676,101.0962,-2.5927729999999998,158.3405,11.41667,-0.6583333,-2.925,1
123909,-0.05419922,0.7529296999999999,-0.3037109,18.61572,-38.20801,13.67188,100.1733,-0.7470703,153.2318,16.225,-8.016666,-0.31666669999999997,1
124159,-0.05322266,1.367676,-0.09179688,24.04785,-14.28223,18.43262,104.1339,4.42749,148.6505,12.75,-0.09166667,-4.066667,1
124409,0.2617188,1.02002,-0.1474609,8.056641,58.1665,-14.70947,101.8048,0.1593018,157.2198,22.30833,-6.666667,2.325,1
124739,-0.2924805,1.152832,-0.07470703000000001,-2.319336,13.73291,-17.45605,104.1284,-4.663696,162.2406,12.10833,-0.9916666999999999,-1.491667,1
125029,0.2104492,1.464355,-0.11865229999999999,-0.24414059999999999,2.502441,-0.42724609999999996,104.1943,-1.318359,154.5996,18.94167,-4.075,3.341667,1
125339,0.3051758,1.018066,-0.05322266,-21.66748,-3.723145,20.99609,105.0128,2.521362,151.5729,12.79167,-1.2,-3.675,1
125649,-0.1791992,1.293945,-0.22949219999999998,12.08496,4.211426,6.04248,101.3489,1.175537,158.5052,19.475,-0.7666666999999999,-0.025,1
125989,-0.1679688,1.119141,-0.07714844,-0.06103516,-4.394531,-26.85547,102.7551,-1.9885249999999999,159.4611,14.075,-1.508333,-2.866667,1
126259,0.1201172,1.237793,-0.1958008,-9.338379,0.793457,-2.075195,101.4642,-0.4998779,154.4897,71.58334,-85.23333,65.34167,1
126659,0.030273440000000002,0.7695312999999999,-0.02587891,-28.74756,29.1748,12.20703,99.90417,1.279907,151.5015,10.575,-2.266667,-0.2333333,1
126919,0.017089840000000002,1.098633,-0.1552734,17.94434,33.38623,-2.807617,100.2228,0.40649409999999997,160.1532,25.11667,-1.108333,2.941667,1
127140,0.3266602,1.450684,0.1279297,35.70557,44.92188,32.4707,103.8483,-4.031982,160.9442,16.58333,-0.35833329999999997,-3.158333,1
127349,0.01953125,0.7084961,-0.2734375,10.25391,-51.51367,7.324219,101.8158,0.7580566,151.5564,19.675,-7.15,-1.091667,1
127609,-0.03222656,1.176758,0.12255859999999999,-8.850098,-23.86475,-18.79883,102.6837,1.851196,148.2825,20.625,1.3333329999999999,2.325,1
127829,0.05419922,0.7734375,-0.08740234,-13.85498,43.5791,12.57324,100.8765,1.906128,149.1998,14.18333,-3.783333,-0.4333333,1
128139,-0.01611328,1.079102,0.01855469,-2.441406,-13.97705,23.80371,101.3214,-0.34606929999999997,156.2585,69.19167,-87.5,69.10833,1
128439,-0.04589844,0.7670897999999999,-0.12695309999999999,-17.27295,-25.57373,-2.380371,101.5137,-0.2526855,155.7367,14.65833,-4.05,1.525,1
128769,0.020996090000000002,1.1533200000000001,-0.00390625,11.04736,-23.80371,-5.981445,103.8373,0.7250977,149.7437,21.55833,0.7166667,2.533333,1
129059,0.028808590000000002,0.8095703,-0.11083979999999999,-21.48438,31.86035,8.728026999999999,102.42,0.1098633,150.672,14.36667,-3.875,-1.041667,1
129409,0.04833984,1.169922,-0.1259766,-1.037598,0.9765625,8.056641,102.2278,-0.18676759999999998,156.3904,19.90833,2.383333,1.275,1
129649,-0.05810547,0.8085937999999999,-0.05029297,-26.00098,-0.8544921999999999,3.662109,101.7224,-1.51062,159.9939,66.225,-89.61667,72.80833,1
129929,0.20166019999999998,1.000488,-0.3349609,19.89746,40.89355,16.17432,103.1836,-3.66394,159.505,21.65833,1.575,3.375,1
130209,0.1445313,0.9438477,-0.18603519999999998,3.051758,184.5093,0.12207029999999999,101.0522,-5.690918,-173.7213,15.85,-2.85,0.1666667,1
131459,0.3427734,1.535645,0.01074219,14.34326,63.7207,-38.94043,88.00049,0.19226069999999998,-60.94116,19.79167,2.016667,-0.1083333,1
131789,0.06201172,0.996582,-0.0546875,-14.89258,69.33594,18.61572,87.9126,-1.922607,-41.97876,14.90833,-1.35,-0.3416667,1
132099,0.05078125,1.108887,-0.2280273,16.23535,44.06738,-2.319336,88.62122,-0.9393311,-28.03711,26.425,-2.675,-1.975,1
132439,-0.026367190000000002,1.036133,0.1772461,8.544922,15.01465,-12.75635,87.72583,-2.1698,-25.55969,14.40833,-1.45,0.5916667,1
132649,-0.19384769999999998,1.3623049999999999,-0.1289063,23.98682,6.9580079999999995,10.98633,93.20251,-0.637207,-20.39063,-2.5,-89.375,36.20833,1
132879,-0.005859375,1.222656,0.20947269999999998,-14.77051,-24.41406,-12.81738,95.31189,3.03772,-23.28552,18.375,-0.48333329999999997,0.275,1
133149,0.1030273,0.75,0.0078125,-16.90674,-25.14648,13.85498,92.54333,0.27465819999999996,-27.74597,12.69167,-3.483333,0.36666669999999996,1
133359,0.29345699999999997,1.212891,-0.1850586,4.638672,41.19873,-10.00977,94.14185,0.1757813,-26.26831,25.01667,-2.108333,3.058333,1
133589,-0.25439449999999997,0.9765625,0.04785156,-7.69043,-1.953125,-16.17432,95.17456,-1.9885249999999999,-21.868290000000002,12.75833,-0.36666669999999996,-0.65,1
133859,-0.08447266,0.8437500000000001,-0.1640625,-3.90625,-47.85156,16.96777,93.6969,0.13732909999999998,-27.92175,20.76667,-6.633333,-0.8166667,1
134109,-0.2636719,1.233398,0.04736328,4.333496,-13.97705,-6.835938,96.026,3.47168,-34.46411,13.11667,0.48333329999999997,-4.166667,1
134409,0.0004882813,0.8242187999999999,-0.23291019999999998,16.96777,17.94434,-11.84082,94.34509,-0.9832763999999999,-28.42712,21.93333,-7.225,-0.8166667,1
134679,-0.041015630000000004,1.168945,0.1630859,0.5493163999999999,0.3051758,-2.624512,95.25696,-2.966309,-24.98291,-7.191667,-84.84167,40.975,1
134949,-0.03662109,0.7128905999999999,-0.1796875,9.82666,-31.37207,5.249023,94.76257,0.1593018,-27.32849,17.89167,-3.2,2.291667,1
135199,-0.08398438,1.034668,0.1616211,0.42724609999999996,-9.643555,-8.178711,98.09692,2.224731,-30.99792,-5.358333,-87.50833,47.4,1
135489,-0.04589844,0.703125,-0.1635742,2.807617,17.7002,-4.272461,96.01501,-1.669922,-29.31152,22.78333,-3.708333,0.3083333,1
135839,0.1777344,0.8862304999999999,0.3378906,-9.216309,-12.26807,19.04297,96.3446,-3.010254,-30.06958,18.85833,-0.6916667,-1.283333,1
136119,-0.02197266,0.7250977,-0.105957,12.26807,1.8310549999999999,10.25391,95.3009,-1.186523,-31.27258,21.43333,-5.141667,-1.35,1
136449,-0.07617188,1.294922,0.04980469,-2.807617,-9.521484,-5.065918,97.92664,1.208496,-31.5033,13.36667,0.55,-2.541667,1
136749,0.2260742,0.9931641,-0.2182617,20.26367,19.83643,-21.85059,97.09167,-1.208496,-31.23413,22.83333,-9.9,-0.35833329999999997,1
136989,0.07568359,0.9130859,0.30273439999999996,1.708984,-2.13623,19.28711,97.62451,-2.850952,-29.02588,19.31667,0.5833332999999999,1.75,1
137199,-0.04931641,0.6411133,-0.1987305,17.7002,-25.87891,7.69043,95.92163,-0.2911377,-28.45459,-6.325,-84.175,46.61666,1
137439,-0.1079102,1.559082,-0.06982422,21.85059,-5.7983400000000005,-14.70947,98.58032,0.1647949,-32.70081,21.425,2.241667,-0.15,1
137679,0.140625,0.7524413999999999,-0.05224609,-13.85498,17.45605,10.43701,94.98779,-0.9008788999999999,-31.06934,-6.741667,-83.13333,47.39167,1
137939,-0.10107419999999999,1.308105,-0.2475586,13.42773,24.6582,-1.525879,96.92688,0.39550779999999996,-24.82361,22.175,-3.191667,-2.683333,1
138210,0.1611328,1.04541,0.2514648,-2.380371,-10.19287,-0.1831055,95.65796,-2.015991,-30.06958,15.875,1.2,-0.1916667,1
138419,0.1611328,1.04541,0.2514648,-2.380371,-10.19287,-0.1831055,95.65796,-2.015991,-30.06958,13.83333,-1.5,3.841667,1
138669,0.2246094,1.306641,0.09570313,-10.86426,-12.69531,-31.37207,99.26147,1.878662,-35.6781,20.275,1.1,1.041667,1
138900,0.1044922,0.8515625,0.01220703,-16.60156,16.54053,28.38135,97.89917,2.164307,-34.151,13.03333,-1.275,-1.733333,1
139139,-0.028808590000000002,1.3354489999999999,-0.3833008,-8.789063,8.728026999999999,6.164551,98.88245,0.45593259999999997,-29.38293,14.60833,-1.733333,-0.6583333,1
139439,0.07861328000000001,0.7866211,0.001953125,-12.69531,8.483887,-18.00537,97.27844,-0.2581787,-30.59692,12.325,-1.8,-0.1833333,1
139729,-0.14306639999999998,1.31543,-0.40429689999999996,7.324219,-31.25,-15.74707,98.97583,0.1153564,-33.01941,16.5,3.216667,1.4583329999999999,1
140059,0.01660156,0.7695312999999999,-0.03222656,-15.38086,32.22656,24.53613,98.12988,0.8349609,-32.40967,13.54167,-2.691667,-0.1416667,1
140349,-0.07910156,1.366211,-0.4091797,-8.666992,8.056641,16.17432,99.86023,0.7415771,-24.84558,13.65833,-0.2,-1.075,1
140689,0.05419922,0.8105469,-0.02587891,-11.04736,1.098633,-21.85059,98.78357,-0.4724121,-28.60291,12.83333,-2.033333,0.7833333,1
140949,0.190918,1.217285,-0.38867189999999996,-17.63916,12.26807,-16.35742,98.8385,-1.060181,-27.99316,18.90833,1.191667,-1.05,1
141319,0.1181641,0.762207,-0.09570313,-9.643555,-3.845215,10.68115,96.19629,-0.4614258,-31.7395,-1.55,-88.44167,47.31667,1
141719,-0.07910156,1.107422,0.284668,3.051758,-9.643555,18.43262,97.50916,-1.691895,-28.22388,18.95833,1.4583329999999999,1.266667,1
141959,-0.1079102,0.7221679999999999,-0.1572266,-1.098633,-37.78076,9.521484,95.59753,-0.28564449999999997,-30.47607,21.33333,-2.416667,0.2583333,1
142219,-0.27783199999999997,1.466797,-0.2792969,26.24512,-27.34375,-15.56396,97.81128,-0.2416992,-37.72156,15.09167,3.783333,-1.108333,1
142429,0.1259766,1.027832,-0.01416016,-18.37158,19.22607,23.98682,98.09692,1.801758,-36.97998,13.81667,-0.008333334000000001,-0.7000000000000001,1
142659,0.1694336,1.286621,-0.2607422,-7.385254,51.81885,-5.004883,97.3114,-0.7580566,-28.30078,-0.6416666999999999,-87.575,44.51667,1
142929,-0.02978516,0.9238280999999999,0.06347656,-8.850098,-12.26807,-27.22168,97.54211,-1.032715,-27.37793,-0.5750000000000001,-87.93333,44.98333,1
143229,-0.1386719,0.8583984,-0.1928711,12.93945,-26.9165,13.00049,97.61353,0.5987549,-30.01465,20.59167,-7.558333,0.65,1
143469,-0.2270508,1.242676,0.02441406,23.07129,-4.760742,9.521484,101.0907,4.454956,-34.38171,12.19167,-0.675,-2.458333,1
143759,0.10107419999999999,0.828125,-0.2661133,-2.075195,31.00586,-17.94434,98.41553,-0.9283446999999999,-30.59143,20.63333,-7.141667,-1.475,1
144069,0.01953125,1.182129,0.1401367,1.6479489999999999,-29.1748,12.45117,97.32239,-2.911377,-32.40417,-2.283333,-86.66666,48.325,1
144359,0.006347656,0.8632812999999999,-0.1835938,1.281738,-23.37646,10.80322,96.28967,-0.33508299999999996,-41.20972,20.03333,-6.108333,-0.225,1
144679,0.04931641,1.087891,0.06494141,0.793457,13.42773,-10.37598,97.16858,1.8951419999999999,-43.30811,-0.5666667,-88.31667,53.56667,1
144969,-0.03515625,0.8911133,-0.1835938,2.380371,23.62061,-19.89746,96.05896,-1.867676,-33.37097,20.65,-4.691667,1.45,1
145309,0.2148438,1.254395,0.2045898,12.63428,11.04736,9.521484,96.94336,-3.416748,-28.50403,15.83333,0.1916667,-0.8333332999999999,1
145609,-0.1137695,0.8793945,-0.1992188,13.5498,-9.887695,8.605957,97.58606,-0.5383300999999999,-27.43286,21.85,-7.466667,0.17500000000000002,1
145939,-0.09277344,1.200195,0.03515625,3.540039,5.004883,-0.7324219,100.036,3.47168,-30.45959,12.79167,-0.4,-4.25,1
146139,0.1630859,0.8945312999999999,-0.2397461,9.338379,16.47949,-21.72852,97.49817,-0.302124,-28.8446,0.8,-88.51667,44.80833,1
146389,-0.27832029999999996,1.181152,0.2036133,-3.051758,-22.09473,16.11328,96.70166,-1.494141,-26.6748,0.1083333,-87.50833,43.14167,1
146639,-0.02929688,0.8100586,0.03369141,-9.399414,-5.126953,-14.16016,96.71814,-1.307373,-27.4054,13.14167,-2.333333,-0.375,1
146889,-0.11083979999999999,1.109863,-0.5400391,-5.065918,-16.05225,-7.019043,97.26746,-1.230469,-30.33325,0.5,-88.2,45.91667,1
147139,0.006835938000000001,1.289063,0.05419922,2.807617,17.63916,11.2915,98.19031,1.867676,-29.44336,12.55,0.25,-2.175,1
147359,0.08398438,0.7202147999999999,-0.1015625,0.8544921999999999,17.51709,2.929688,95.64697,-2.400513,-25.76843,18.54167,-3.9333329999999997,2.066667,1
148589,-0.0625,1.255371,-0.33251949999999997,-10.31494,11.47461,4.394531,99.01428,0.2087402,-31.56921,17.06667,1.141667,-1.425,1
148899,-0.08691406,0.9199219,0.009277344,-15.93018,-9.094238,-16.29639,98.22876,-2.010498,-31.64612,-0.08333334,-87.86667,45.60833,1
149169,0.125,1.146973,-0.3588867,2.807617,-4.394531,-10.92529,97.98157,-0.3900146,-36.50208,-0.275,-87.90833,48.40833,1
149469,-0.05371094,1.263672,0.05615234,-2.563477,-16.17432,-8.117676,99.5636,3.57605,-38.8147,12.55833,0.1333333,-4.516667,1
149709,0.1445313,0.9082030999999999,-0.3212891,16.29639,31.86035,-20.20264,98.49243,0.3405762,-37.27112,0.3833333,-88.85833,47.675,1
149979,-0.05859375,1.227051,0.1386719,5.249023,-7.8125,-1.342773,100.1733,-2.37854,-34.9585,-0.8833333,-87.66666,48.73333,1
150299,-0.05615234,0.7221679999999999,-0.11474609999999999,-10.31494,-27.22168,2.868652,97.56958,0.5493163999999999,-38.29285,18.43333,-1.066667,0.7416667,1
150579,-0.1264648,1.061523,0.1035156,1.7700200000000001,12.20703,-12.20703,98.57483,1.983032,-39.54529,0.17500000000000002,-89.30833,50.525,1
150909,0.006347656,0.9379883,-0.1450195,1.403809,30.88379,-14.16016,96.90491,-1.373291,-33.77197,-0.5083333,-88.25833,44.76667,1
151229,0.1323242,1.165039,0.152832,-4.577637,8.544922,3.723145,97.63,-2.817993,-31.57471,15.25833,0.05,-1.4,1
151579,-0.11474609999999999,0.824707,-0.1523438,26.97754,-10.62012,9.094238,98.03101,-1.3348389999999999,-30.03662,19.86667,-8.2,-0.8250000000000001,1
151779,0.06005859,1.229004,0.00390625,-1.037598,7.568359,-3.356934,101.1182,1.878662,-32.45361,0.6583333,-89.88333,48.26667,1
152019,0.07373047,0.7104492,-0.04833984,-11.90186,14.03809,8.239746,97.04224,-1.7028809999999999,-29.4873,15.225,-1.633333,-0.6416666999999999,1
152289,-0.08349609,1.5073239999999999,-0.3085938,-5.7983400000000005,-2.01416,4.333496,98.42651,-0.2362061,-27.65808,15.08333,-0.725,-0.5583332999999999,1
152499,0.060546880000000004,1.133301,0.17871089999999998,-1.708984,-10.43701,4.882813,97.22351,-1.796265,-33.48083,13.75,0.1833333,-0.9583332999999999,1
152729,-0.24414059999999999,0.8779296999999999,-0.18994139999999998,20.26367,-6.9580079999999995,15.38086,98.12439,-1.104126,-32.44812,18.56667,-8.183333,0.30000000000000004,1
153009,0.1098633,1.123047,0.02929688,-3.417969,10.25391,9.765625,99.58008,2.224731,-34.65088,0.2,-89.60833,48.43333,1
153269,0.046875,0.75,-0.1035156,-2.258301,11.96289,4.821777,97.3114,-2.092896,-32.7063,14.71667,-4.633333,2.191667,1
153520,-0.1015625,1.050293,0.144043,2.441406,-23.4375,12.93945,98.79456,-2.416992,-31.30554,-1.7083329999999999,-87.31667,45.79167,1
153819,-0.04931641,0.7856445,-0.08642578000000001,2.502441,-15.19775,-1.403809,97.46521,-0.3405762,-33.12927,-0.7000000000000001,-88.55833,47.15833,1
154099,0.05957031,1.145996,-0.42626949999999997,-5.92041,7.873535,-12.87842,100.3271,-1.082153,-34.03015,22.36667,-0.30000000000000004,-1.016667,1
154329,0.09814453000000001,0.9311522999999999,-0.02050781,-21.54541,22.2168,24.10889,98.65723,0.9448242,-33.38745,-0.08333334,-88.55,47.175,1
154629,0.05712891,1.216309,-0.1948242,8.850098,23.37646,-7.141113,97.2345,-0.8569336,-27.89978,24.80833,0.5,-2.558333,1
154959,-0.05224609,0.9130859,0.04345703,-0.1831055,-1.8310549999999999,-22.88818,96.46545,-1.713867,-29.44885,13.06667,-1.4583329999999999,0.8166667,1
155259,0.16601559999999999,1.29248,-0.4233398,-2.13623,-14.22119,-17.08984,99.58557,-0.9558105,-31.15723,21.70833,0.75,0.6916667,1
155589,-0.0004882813,0.7426758,0.0078125,-33.20313,-4.760742,30.45654,98.49792,0.7415771,-32.44263,12.54167,-0.9166667,-1.15,1
155889,-0.2480469,1.233887,-0.7143554999999999,-8.666992,28.80859,7.995605,98.49243,-0.4229736,-26.98792,17.45833,3.008333,-0.8,1
156129,0.01171875,0.7124022999999999,0.0009765625,-2.990723,-1.464844,-12.39014,98.36609,-0.8953857,-28.57544,2.358333,-87.1,42.83333,1
156409,-0.12695309999999999,1.146973,-0.1601563,23.68164,-23.4375,10.80322,100.1514,-0.8734130999999999,-31.1792,20.05,-8.858334,2.6,1
156630,0.07714844,1.041992,0.1835938,-15.38086,13.12256,-37.71973,101.3708,3.279419,-32.69531,19.5,-0.8166667,-0.65,1
156839,-0.08837891,0.7705078,-0.2104492,9.460449,17.8833,-4.333496,98.16284,-0.7415771,-28.38318,19.50833,-2.883333,0.275,1
157140,-0.046875,1.478516,-0.2807617,1.342773,-9.643555,15.01465,98.59131000000001,-0.07141113,-23.75793,15.375,4.675,0.15833329999999998,1
157349,-0.046875,1.478516,-0.2807617,1.342773,-9.643555,15.01465,98.59131000000001,-0.07141113,-23.75793,11.78333,-0.05,-1.141667,1
157599,-0.07666016,1.263672,-0.1328125,13.30566,-23.37646,7.69043,98.55835,-1.1920169999999999,-33.22266,24.3,-6.008333,2.05,1
157839,0.2426758,1.219238,-0.060546880000000004,0.9765625,16.23535,26.79443,100.4315,2.598267,-36.01868,-2.116667,-88.35,49.61666,1
158109,-0.002929688,0.7026367,-0.1318359,-2.868652,37.78076,-2.929688,98.73962,-1.213989,-30.71228,19.55,-3.041667,1.683333,1
158399,0.1567383,0.871582,0.29394529999999996,9.094238,-2.868652,31.55518,101.0852,-3.515625,-26.15845,19.33333,-0.05833333,0.36666669999999996,1
158669,0.01660156,0.75,-0.2041016,-3.967285,-22.09473,4.577637,99.0033,-1.472168,-29.60815,16.31667,-2.566667,0.5750000000000001,1
158999,0.5742188,1.44043,0.08837891,19.83643,10.31494,-38.63525,101.5192,0.5493163999999999,-36.94702,23.21667,-1.283333,1.425,1
159279,0.11279299999999999,0.746582,-0.03613281,-16.41846,36.43799,16.47949,98.20129,-1.345825,-32.74475,14.35,-3.45,1.466667,1
159609,-0.18261719999999998,1.202637,0.2270508,1.342773,-12.39014,11.2915,99.0802,-2.070923,-23.89526,22.10833,2.116667,1.483333,1
159889,-0.09472656,0.7651367,-0.06347656,3.723145,-30.88379,-8.178711,97.83875,-0.5932617,-27.54272,16.04167,-3.75,0.35000000000000003,1
160209,0.12695309999999999,1.632813,-0.10498049999999999,-6.04248,-31.55518,-1.89209,101.2665,0.1702881,-36.44165,14.95,2.283333,0.6333333,1
160519,0.1342773,0.9614258,-0.05859375,-19.40918,33.81348,13.79395,99.09119,-1.373291,-30.94849,13.08333,-2.9,-1.533333,1
160770,0.2646484,1.119629,-0.04736328,3.051758,43.27393,-19.40918,97.38831,-1.543579,-23.10974,23.11667,-9.058333,0.65,1
160979,0.2646484,1.119629,-0.04736328,3.051758,43.27393,-19.40918,97.38831,-1.543579,-23.10974,20.43333,1.858333,1.083333,1
161209,-0.01074219,0.8217772999999999,-0.1459961,5.7983400000000005,-25.45166,-0.06103516,96.44897,-0.38452149999999996,-24.29626,15.8,-3.516667,3.125,1
161459,-0.1621094,0.9335937999999999,-0.4848633,10.43701,-10.00977,-4.272461,99.29993,-1.005249,-26.57043,18.275,1.666667,1.158333,1
161709,0.009765625,0.8198242,-0.04150391,-22.64404,31.37207,23.4375,99.49768,0.9393311,-26.48804,13.95833,-1.966667,-2.225,1
161989,-0.1616211,1.207031,-0.4077148,7.324219,-5.004883,10.92529,99.42078,-0.5053711,-20.33569,2.266667,-90.31667,41.93333,1
162279,-0.02685547,0.9267578,-0.04638672,-8.728026999999999,-5.249023,-17.76123,99.04724,-2.449951,-20.57739,1.35,-89.74167,41.64167,1
162549,-0.06835938,0.8735352,-0.1987305,-7.324219,-32.83691,10.92529,97.83875,-0.4284668,-22.46704,20.13333,-1.375,0.075,1
162799,-0.19726559999999999,1.027344,0.1933594,-2.01416,-27.16064,-22.52197,99.63501,2.373047,-29.14673,1.7083329999999999,-91.225,47.19167,1
163109,-0.04785156,0.8364258,-0.2431641,4.02832,26.79443,-7.263184,98.7616,-1.829224,-26.18042,20.60833,-3.3,0.8833333,1
163419,0.2836914,0.9296875,0.23681639999999998,8.911133,37.17041,13.18359,99.20105,-3.751831,-19.95117,18.25833,-0.1916667,0.17500000000000002,1
163739,-0.022460940000000002,0.7192383,-0.21777339999999998,4.760742,-15.68604,10.55908,99.02527,-1.7303469999999999,-18.70422,21.15833,-2.0,0.35833329999999997,1
164039,-0.2270508,1.107422,0.07080078000000001,9.094238,16.8457,-25.93994,101.3818,1.30188,-20.14343,17.14167,-0.975,-2.458333,1
164319,-0.1455078,0.7543945,-0.2001953,-3.90625,28.80859,-8.361816,97.99805,-3.7133789999999998,-5.196533,19.00833,-3.575,0.7166667,1
164659,0.2568359,0.9980469,0.3208008,-6.652832,17.02881,22.2168,98.57483,-4.004517,-1.999512,18.75833,-0.2,0.225,1
165949,-0.08691406,1.051758,-0.01416016,6.530762,-5.493164,-21.24023,100.7117,-3.526611,-8.893433,13.76667,-0.49166669999999996,-1.083333,1
166179,-0.046875,0.7509766,-0.2607422,6.835938,-26.42822,12.39014,99.87122,-1.389771,-12.38159,22.05,-1.416667,-0.7000000000000001,1
166389,-0.4091797,1.367676,-0.3598633,28.9917,-18.73779,-11.2915,101.9916,-1.598511,-15.89172,15.0,1.416667,-0.6833332999999999,1
166599,0.2163086,1.144531,-0.09667969,-5.126953,52.36816,12.75635,101.8872,1.318359,-10.74463,14.83333,-1.183333,-2.841667,1
166819,0.005859375,0.9116211,-0.1196289,-5.7983400000000005,16.05225,-16.60156,96.95435,-3.218994,5.52063,11.36667,-91.26667,27.48333,1
167050,-0.1479492,1.327148,0.23681639999999998,22.27783,2.929688,18.49365,97.85522,-3.6804200000000002,8.920898,15.95833,1.383333,-0.3916667,1
167309,-0.008789063,0.8657227,-0.07519531,0.1831055,-2.990723,-10.86426,96.95435,-2.856445,10.60181,14.4,-4.05,0.31666669999999997,1
167639,0.0546875,1.4863279999999999,0.02587891,17.15088,-19.59229,-27.16064,100.1788,-1.279907,5.817261,18.925,0.9833333999999999,-1.4583329999999999,1
167919,0.10644529999999999,0.8784179999999999,-0.06738281,-14.5874,24.84131,14.22119,98.13538,-1.560059,4.482422,11.65,-91.84167,29.775,1
168179,0.215332,1.178223,-0.1538086,-1.89209,50.96436,-11.41357,99.44824,-0.9558105,10.31067,23.85833,-5.108333,0.8916666,1
168429,-0.19384769999999998,1.023438,-0.01806641,3.356934,-12.51221,-13.30566,100.047,-3.510132,13.05176,14.866670000000001,-92.825,29.45,1
168730,0.01464844,1.229004,-0.1015625,5.310059,-7.629395,3.662109,101.1346,-1.994019,6.366577,25.09167,-3.783333,4.625,1
169069,0.2612305,1.072754,-0.05126953,-7.8125,44.86084,17.39502,102.5464,1.274414,8.55835,15.075,-1.3333329999999999,-3.658333,1
169329,0.2578125,1.013672,-0.07666016,15.07568,43.5791,-21.60645,98.23975,-3.03772,22.98889,20.81667,-92.79166,26.04167,1
169619,0.09814453000000001,0.8178711,0.2119141,7.995605,13.06152,7.8125,100.2283,-4.746094,22.74719,19.64167,0.3416667,1.216667,1
169899,-0.04199219,0.7851562999999999,-0.230957,1.159668,-1.403809,1.159668,99.3219,-2.543335,27.92725,17.575,-2.591667,1.508333,1
170169,0.5268554999999999,1.240723,0.08398438,19.71436,9.94873,-29.23584,102.7277,-0.4229736,25.4718,23.03333,-2.541667,2.091667,1
170529,0.2509766,0.8891602,-0.1889648,-0.3662109,22.94922,-21.97266,99.76685,-1.450195,31.2616,26.55833,-93.74167,26.01667,1
170799,-0.2353516,0.9140625,0.09521484000000001,-9.277344,-29.1748,11.47461,100.1019,-2.949829,31.19568,22.71667,2.208333,1.2,1
171039,-0.008789063,0.6708984,-0.1518555,-12.81738,-32.4707,-0.6713867,99.33838,-1.246948,25.16968,22.36667,-93.48333,26.8,1
171289,-0.09277344,0.8945312999999999,-0.5283203,-10.68115,5.126953,-8.666992,99.98657,-2.598267,21.34644,20.41667,2.8083329999999997,1.3,1
171539,0.04443359,0.8383788999999999,-0.03808594,-26.30615,37.04834,16.47949,99.70642,0.46691889999999997,22.35168,13.6,-1.983333,-0.7416667,1
171839,0.05615234,0.828125,-0.1523438,7.629395,46.44775,-18.9209,99.1626,-1.878662,31.30554,20.875,-6.65,0.6000000000000001,1
172089,0.1694336,1.181152,0.1123047,5.554199,28.13721,24.53613,100.1624,-4.328613,33.56323,17.5,-0.9916666999999999,-0.675,1
172359,0.015136720000000001,0.8120117,-0.2114258,-2.990723,-32.89795,18.24951,97.93213,-2.763062,32.95898,25.63333,-93.04166,24.60833,1
172629,-0.01074219,1.36377,0.1191406,5.67627,-19.22607,-13.24463,100.2832,-2.208252,27.76245,19.65833,0.6083333,1.733333,1
172879,0.1884766,0.7871094,-0.06152344,-22.3999,50.59814,16.96777,98.71216,-2.2796629999999998,31.55273,27.15833,-93.58334,25.00833,1
173189,0.28564449999999997,1.285645,-0.2426758,11.53564,19.9585,-3.2958979999999998,102.0575,-3.66394,43.43445,17.44167,6.141667,0.44166669999999997,1
173479,-0.06347656,0.7426758,-0.11425779999999999,-6.835938,-15.74707,-13.97705,101.8488,-3.306885,47.21924,34.675,-95.775,28.14167,1
173789,-0.2514648,1.538086,-0.2734375,20.69092,-24.84131,-13.97705,105.1501,-2.433472,44.67041,15.78333,2.841667,0.675,1
174099,0.07470703000000001,0.8310546999999999,-0.1074219,-31.43311,28.56445,10.13184,99.89319,-3.4552,52.41028,13.075,-3.625,-1.15,1
174399,0.22949219999999998,1.385742,-0.4082031,-8.178711,13.48877,-2.868652,99.43726,-2.839966,57.88696,16.50833,3.408333,-1.058333,1
174709,0.04150391,0.8696288999999999,0.009277344,-8.850098,-24.53613,-20.08057,98.19031,-2.785034,55.70618,15.8,-3.2,0.06666667,1
175049,0.0034179690000000003,1.064453,-0.3666992,1.6479489999999999,-27.09961,-3.845215,97.80029,-1.796265,50.52612,20.68333,2.575,1.716667,1
175279,-0.0078125,0.8852538999999999,0.01660156,-10.19287,-2.258301,32.53174,97.50366,0.5932617,44.2804,36.025,-94.26667,24.7,1
175529,-0.03417969,0.7836913999999999,-0.2382813,7.873535,9.399414,-2.990723,97.06421,-2.389526,44.78577,21.21667,-3.533333,0.2833333,1
175759,0.04052734,1.029785,0.2641602,-10.62012,36.25488,3.2958979999999998,98.71765,-4.476929,47.28516,35.13334,-95.25833,25.38333,1
175999,-0.05371094,0.8452147999999999,-0.08398438,-2.624512,38.26904,-11.90186,97.33887,-3.158569,53.93738,14.18333,-3.883333,-0.425,1
176289,-0.394043,1.081543,-0.4921875,18.18848,-12.75635,-11.65771,100.0745,-2.318115,59.66675,43.5,-95.85,28.325,1
176579,-0.028808590000000002,0.7055663999999999,-0.030273440000000002,-25.39063,3.601074,22.15576,98.94836,-0.1043701,58.07922,13.68333,-2.275,-2.4,1
176899,-0.2070313,1.1845700000000001,-0.4770508,-0.7324219,5.493164,10.62012,98.93188,-0.5657959,62.34192,45.475,-95.025,27.3,1
177249,-0.0078125,0.8764647999999999,-0.002929688,-8.605957,-15.13672,-21.1792,99.77234,-2.164307,62.07825,12.76667,-2.4,-0.47500000000000003,1
177489,0.09033203000000001,1.065918,-0.5151367,-0.9765625,-26.48926,-11.47461,100.3271,-1.274414,54.4043,41.04167,-96.375,27.39167,1
177809,0.05712891,0.7617187999999999,-0.05419922,-28.68652,15.93018,26.18408,99.75586,0.7086182,51.45447,12.56667,-1.483333,-1.358333,1
178129,-0.1411133,1.212891,-0.4091797,-12.45117,18.9209,11.53564,100.2557,-0.4229736,56.99707,20.46667,4.641667,-2.541667,1
178399,-0.05566406,0.9995117,0.006347656,-9.94873,-7.446289,-16.29639,99.68445,-3.927612,58.2605,41.89167,-96.33334,27.83333,1
178689,0.22900389999999998,1.25,-0.2954102,-1.098633,0.9765625,-7.995605,99.10217,-3.032227,55.43152,41.01667,-95.60833,26.38333,1
178980,-0.1489258,1.063965,0.1577148,6.286621,-5.371094,-19.59229,99.57458,0.9613037,54.90417,16.88333,0.2666667,-2.066667,1
179239,-0.04248047,0.7211913999999999,-0.15478519999999998,-8.117676,22.76611,-7.202148,96.29517,-2.565308,59.82056,19.575,-1.783333,2.333333,1
179559,0.253418,0.9511719,0.2460938,7.93457,36.31592,5.7983400000000005,98.93188,-3.603516,62.46277,19.925,0.025,1.658333,1
179869,-0.02294922,0.6650391,-0.2314453,5.371094,-14.03809,6.103516,98.45398,-1.625977,64.7644,20.00833,-2.608333,1.816667,1
180119,-0.04589844,1.131836,0.1601563,-5.554199,-11.65771,-27.89307,102.0026,2.208252,60.95764,17.2,-0.7416667,-1.358333,1
180379,0.09960938,0.7827147999999999,-0.048828130000000004,-17.27295,9.58252,12.20703,99.73389,-0.9997558999999999,62.49573,13.95,-3.125,-0.85,1
180599,0.09423828000000001,1.143066,-0.144043,10.80322,13.48877,-3.90625,99.60754,-0.38452149999999996,64.74243,25.69167,-5.941667,1.05,1
180829,-0.1464844,1.109863,-0.03173828,3.78418,11.90186,-16.17432,100.0909,-3.427734,66.75842,13.24167,-0.8083332999999999,-0.9666665999999999,1
181119,-0.02783203,0.7529296999999999,-0.230957,-2.197266,-12.87842,9.155273,99.04175,-1.30188,66.39587,20.15833,-2.55,1.675,1
181359,-0.16601559999999999,1.034668,0.1474609,9.58252,-22.82715,-18.24951,102.03,1.889648,62.90222,19.1,-0.6416666999999999,-1.358333,1
181599,-0.0546875,0.7382812999999999,-0.1879883,-3.051758,23.37646,-6.896973,99.91516,-1.109619,65.27527,48.40833,-97.06667,28.44167,1
181899,0.3447266,1.428223,-0.28613279999999996,25.6958,-4.943848,8.361816,101.673,-0.6756592,68.89526,16.56667,4.108333,-0.3416667,1
183149,-0.05029297,0.7504883,0.13916019999999998,10.49805,0.1831055,20.01953,100.1129,-2.263184,63.07251,20.96667,1.416667,0.5916667,1
183429,0.008789063,0.7485352,-0.1850586,-6.347656,-30.33447,-4.699707,99.61853,-0.6481933999999999,60.89722,46.275,-97.40833,26.73333,1
183709,0.07519531,1.03125,-0.515625,-1.464844,-2.807617,-9.094238,101.0358,-1.691895,56.76086,18.85,1.083333,1.5,1
183959,-0.01904297,0.9345703,-0.03125,-14.16016,24.84131,21.85059,101.228,1.3348389999999999,55.85449,14.31667,-1.391667,-2.233333,1
184259,-0.10058589999999999,1.245117,-0.1181641,-3.601074,15.68604,-2.929688,98.90442,-1.115112,64.11621,25.96667,-3.583333,-0.09166667,1
184569,-0.1123047,1.244629,-0.02392578,13.00049,8.178711,-17.63916,100.0635,-2.39502,67.29126,14.06667,-1.008333,-0.8250000000000001,1
184869,-0.04833984,1.089355,-0.27880859999999996,29.23584,-71.77734,16.78467,100.1074,-1.137085,60.69397,25.175,-4.291667,1.025,1
185269,0.04785156,0.7753905999999999,-0.03125,-12.08496,5.065918,17.45605,98.09692,-0.4174805,55.45349,13.29167,-3.091667,-1.983333,1
185519,0.02392578,1.223145,-0.19824219999999998,13.5498,18.61572,-9.399414,99.55811,1.593018,57.6123,24.45833,-6.433333,4.275,1
185749,-0.1411133,1.011719,0.002929688,-6.652832,0.1831055,-16.54053,99.38782,-2.268677,56.36536,43.375,-97.275,24.54167,1
186009,0.03320313,0.8442383,-0.2753906,9.643555,-16.23535,13.3667,97.78381,-0.5163574,55.14587,22.14167,-3.25,-0.7333333,1
186219,-0.16259769999999998,1.112305,-0.20605469999999998,17.51709,-33.26416,-14.22119,101.3818,-0.3515625,51.56433,23.11667,1.7,2.041667,1
186429,0.046875,0.6831054999999999,-0.07519531,-16.41846,24.84131,18.00537,100.3326,-1.5325929999999999,54.06372,42.40833,-98.20834,25.425,1
186689,-0.215332,1.32666,-0.2661133,-6.530762,-12.87842,19.40918,101.629,-0.5108642999999999,57.22778,23.41667,0.36666669999999996,0.925,1
186969,-0.1235352,0.9560546999999999,-0.08056641,-5.67627,5.371094,-23.74268,101.2885,-2.735596,53.80554,42.06667,-98.33334,25.59167,1
187230,-0.1845703,0.8955078,-0.1572266,5.92041,-18.9209,14.16016,100.8929,-1.796265,55.27222,18.69167,-9.7,-0.5750000000000001,1
187449,0.0859375,1.196777,-0.03564453,-5.981445,-19.71436,-6.469727,102.9199,3.087158,52.43774,44.475,-98.25833,26.71667,1
187749,0.06738281,0.8134766,-0.1367188,-8.361816,4.943848,5.67627,100.2228,-1.477661,54.43176,17.35,-3.733333,0.008333334000000001,1
187999,-0.030273440000000002,1.29248,-0.1103516,-18.9209,-31.12793,27.22168,101.25,-1.389771,54.61304,20.98333,2.025,0.8916666,1
188259,-0.08789063,0.7592772999999999,-0.09667969,-8.605957,-22.3999,-7.93457,99.77234,-0.46691889999999997,52.10266,41.85,-97.35833,24.23333,1
188569,0.1279297,1.32373,0.04589844,-9.277344,-22.09473,-6.530762,101.1951,-0.1757813,46.75781,38.725,-97.66666,24.18333,1
188879,0.137207,0.8549804999999999,-0.08789063,-20.1416,37.65869,14.09912,98.30017,-1.779785,50.51514,13.10833,-1.908333,-1.375,1
189219,0.1845703,1.391113,-0.11865229999999999,-10.25391,13.61084,1.464844,98.10791,-1.686401,59.05701,15.89167,5.408333,1.775,1
189489,0.04736328,0.8178711,-0.01220703,5.7983400000000005,-10.80322,-21.42334,98.5968,-1.246948,58.91418,12.76667,-3.833333,2.016667,1
189859,0.05761719,1.166504,0.1254883,7.141113,-23.98682,-32.22656,104.2328,3.081665,53.50342,45.08333,-98.0,27.80833,1
190119,0.01025391,0.8305663999999999,-0.09130859,-19.9585,23.25439,22.27783,101.662,0.4504395,54.32739,13.975,-3.975,-0.6083333,1
190359,0.22900389999999998,0.8696288999999999,-0.1679688,-4.760742,26.7334,-21.97266,100.6458,-0.34606929999999997,57.65625,20.25833,-8.2,-0.9583332999999999,1
190579,-0.3515625,1.167969,0.07373047,6.530762,-25.81787,19.53125,101.0742,-1.8951419999999999,58.3374,22.2,1.166667,0.8583333999999999,1
190799,-0.01171875,0.7880859,-0.1567383,-5.7983400000000005,-18.37158,-1.8310549999999999,99.36584,-0.6427001999999999,55.1239,14.775,-3.075,1.183333,1
191079,0.3359375,1.188965,-0.04052734,18.49365,-18.85986,-26.48926,102.843,0.7690429999999999,51.03699,42.05,-98.09167,26.4,1
191379,0.1230469,0.7915038999999999,-0.1264648,-10.80322,25.20752,9.70459,99.92065,-1.7248539999999999,52.10815,14.18333,-3.916667,0.6333333,1
191679,-0.2680664,1.110352,-0.09277344,1.342773,-23.98682,27.09961,100.6677,-3.010254,56.90369,42.65833,-97.7,25.78333,1
191979,0.03466797,0.9208984,-0.03564453,-12.75635,8.300781,-32.59277,100.3931,-2.471924,57.49695,11.83333,-1.441667,-1.3,1
192239,0.14306639999999998,1.106445,-0.3530273,-7.324219,1.281738,-18.49365,101.7883,-1.604004,57.6947,21.43333,1.05,-0.775,1
192499,0.05419922,0.8520508,0.008300781,-26.12305,11.96289,29.54102,100.2942,1.9885249999999999,56.84326,45.84167,-97.08334,25.83333,1
192779,0.07324219,0.8847655999999999,-0.17431639999999998,4.089355,4.211426,-9.338379,98.71216,0.08789063,56.61255,22.8,-2.616667,0.40833329999999995,1
193039,0.2915039,1.107422,0.2182617,23.31543,-4.211426,14.77051,99.95911,-2.427979,57.38708,18.125,-0.5083333,-0.15,1
193319,-0.0546875,0.8295897999999999,-0.1708984,-3.78418,-22.82715,13.97705,99.14612,0.49438479999999996,55.46448,24.18333,-3.766667,0.4333333,1
193659,-0.19726559999999999,1.123047,0.10498049999999999,16.6626,6.9580079999999995,-12.57324,102.5134,3.334351,52.77283,17.39167,-1.016667,-2.25,1
193939,-0.03271484,0.8325195,-0.1152344,4.699707,14.52637,-16.47949,100.0415,-0.6811522999999999,59.91943,21.99167,-5.783333,2.8,1
194269,0.3393555,0.9487304999999999,0.1635742,-0.5493163999999999,-0.06103516,27.83203,100.9808,-2.504883,59.83704,17.5,-0.7000000000000001,-0.2333333,1
194579,-0.08203125,0.8442383,-0.2910156,-9.033203,-35.33936,12.45117,100.47,0.4394531,53.75061,18.925,-0.9833333999999999,-1.558333,1
194819,-0.4316406,1.487793,-0.4541016,24.6582,-45.6543,-2.197266,101.7828,0.7196045,47.55432,19.60833,-2.041667,-0.3833333,1
195079,0.01611328,0.7988280999999999,-0.044921880000000004,-7.873535,28.32031,18.37158,100.3107,0.1812744,48.56506,12.89167,-4.1,0.2083333,1
195299,0.3369141,1.048828,-0.3085938,12.39014,55.35889,-26.97754,101.3379,0.1263428,54.97559,21.6,-8.591666,0.06666667,1
195529,-0.041015630000000004,0.8227538999999999,0.2124023,-9.70459,-17.39502,25.75684,99.73389,-2.504883,54.42627,18.675,2.158333,0.7416667,1
195749,0.01464844,0.7998046999999999,-0.24462889999999998,-2.197266,-7.8125,-1.586914,98.98132,-0.6976317999999999,49.61426,13.36667,-2.608333,0.25,1
196039,0.12402339999999999,0.8222655999999999,0.07128906,-13.79395,17.33398,-28.38135,100.4755,0.6756592,48.09265,40.975,-98.04166,25.26667,1
196329,0.04345703,0.7724609,-0.1044922,-11.71875,27.58789,9.82666,97.60254,-0.8294678,52.69592,14.4,-1.041667,1.191667,1
196639,-0.4077148,1.052734,0.07177734,-1.037598,-18.12744,19.22607,99.6405,-1.73584,57.9364,43.69167,-97.59167,25.175,1
196949,-0.05761719,0.7924804999999999,-0.12451169999999999,-2.807617,-11.65771,0.1831055,98.66272,-0.7855225,57.37061,14.16667,-3.841667,1.9916669999999999,1
197249,0.2841797,1.035156,0.1020508,5.065918,-18.37158,-14.09912,100.7117,0.1483154,53.08044,19.80833,0.875,-0.47500000000000003,1
197539,0.0625,0.7246094,-0.1191406,3.90625,17.45605,-1.89209,97.83325,-1.389771,53.7616,42.60833,-96.7,23.28333,1
197839,-0.10644529999999999,0.8481445,0.22509769999999998,0.6713867,-6.9580079999999995,26.30615,98.76709,-1.933594,57.74414,43.95,-97.03333,24.48333,1
198129,-0.04345703,0.8212891,-0.2436523,1.342773,-3.90625,2.624512,102.2168,-0.6866455,57.93091,45.025,-98.30833,26.84167,1
198469,0.472168,1.121582,0.09765625,4.089355,-7.69043,-33.20313,104.4745,2.054443,51.32263,20.775,-1.066667,-0.3416667,1
198769,-0.004394531,0.7446288999999999,-0.19824219999999998,-12.146,34.05762,0.6103516,99.97559,-0.8514404,58.58459,15.66667,-2.458333,1.041667,1
199129,0.1074219,1.094727,0.125,7.629395,7.202148,1.220703,100.1953,-4.257202,64.41833,46.96667,-98.05,27.125,1
199359,0.03857422,0.8530272999999999,-0.2148438,-3.356934,-23.25439,-2.624512,99.55811,-0.7250977,60.39185,14.65833,-3.425,0.4583333,1
200629,-0.03955078,0.8901367,-0.152832,1.342773,0.8544921999999999,3.601074,100.5908,-0.14282229999999999,60.72693,14.06667,-2.283333,-4.091667,1
200829,0.2753906,1.178223,-0.1113281,21.11816,-4.821777,-5.249023,99.58008,-1.763306,56.69495,27.16667,-6.766667,0.9,1
201039,-0.21875000000000003,0.9687500000000001,0.190918,-6.9580079999999995,-6.469727,-11.16943,99.49768,2.076416,55.71167,17.65833,-0.05,-0.9500000000000001,1
201259,-0.01074219,0.8515625,-0.1123047,-4.455566,36.68213,-0.42724609999999996,97.05322,-1.016235,62.61658,47.78333,-96.60833,23.59167,1
201499,-0.1191406,1.147461,-0.3984375,4.516602,16.90674,5.67627,98.61877,-0.1208496,69.05457,20.46667,0.7666666999999999,3.408333,1
201759,-0.06201172,0.996582,-0.07666016,-2.807617,-6.225586,-19.28711,100.1624,-3.554077,72.85583,51.25,-98.05833,29.46667,1
202039,0.024902340000000002,0.7568359,-0.2817383,5.004883,-8.483887,12.57324,99.54163,-2.526855,70.88379,19.69167,-5.216667,-0.8,1
202279,-0.1298828,1.328613,0.1118164,-8.361816,-14.64844,-34.60693,102.6013,1.625977,69.25781,52.825,-97.70834,29.78333,1
202569,-0.08300781,0.8881836,-0.1962891,-6.225586,24.10889,-4.455566,99.38782,-1.351318,74.54773,17.825,-5.741667,3.391667,1
202879,-0.32470699999999997,1.273926,0.1362305,16.6626,-33.87451,47.30225,100.6512,-2.598267,79.7168,53.85,-98.275,32.375,1
203169,0.03369141,0.8535155999999999,-0.1918945,-9.70459,-10.62012,-13.5498,99.20654,-1.73584,79.97498,55.15,-97.15833,31.325,1
203499,0.1987305,1.254883,0.04199219,-5.981445,-18.61572,-11.71875,100.2997,-1.18103,75.39368,20.25,0.75,0.3416667,1
203789,0.1342773,0.8642578,-0.07910156,-20.01953,24.78027,13.67188,98.83301,-1.911621,74.71802,13.23333,-3.3,-1.183333,1
204119,0.2304688,1.3666989999999999,-0.3588867,9.155273,14.03809,7.507324,100.882,-3.03772,84.20471,13.05833,3.775,0.9083334,1
204429,-0.026367190000000002,0.8940429999999999,-0.1000977,-7.202148,-26.00098,-14.70947,100.6677,-4.454956,88.20923,14.04167,-4.441667,-0.5166666999999999,1
204759,0.3369141,1.295898,0.19433589999999998,3.356934,-21.24023,-42.11426,103.4747,-1.296387,81.78772,55.98333,-98.31667,36.775,1
205009,0.01611328,0.9013671999999999,-0.1079102,-27.89307,26.85547,17.94434,101.0742,-0.5383300999999999,81.57898,14.6,-2.566667,-3.675,1
205280,0.08398438,0.8159179999999999,-0.1040039,-6.408691,41.19873,-20.1416,96.92139,-2.114868,87.55005,19.49167,-3.883333,0.7083332999999999,1
205489,0.2182617,0.8227538999999999,0.2241211,-5.67627,49.43848,12.20703,98.26721,-4.141846,94.77905,59.05833,-97.35,39.35833,1
205719,0.08251953000000001,0.8852538999999999,-0.07861328000000001,-3.90625,20.44678,-17.82227,97.83325,-3.356323,100.1404,15.19167,-4.8,-1.683333,1
205959,-0.1806641,0.7749022999999999,-0.18652339999999998,23.98682,-15.74707,7.751465,97.98706,-2.801514,100.9863,17.50833,-7.075,2.991667,1
206229,0.028808590000000002,1.239746,0.01367188,0.4882813,-4.455566,1.708984,100.882,2.8125,100.4865,14.825,-1.033333,-3.516667,1
206529,0.1567383,0.8208008,-0.07421875,-12.45117,17.57813,-22.46094,95.28992,-1.329346,103.0353,21.1,-4.85,1.05,1
206789,0.4008789,0.9282227,0.1791992,17.33398,18.98193,28.93066,98.60229,-4.702148,103.9362,17.575,-0.7833333,0.3916667,1
207139,0.05224609,0.8535155999999999,-0.30175779999999996,1.098633,-32.4707,17.82227,100.4535,-0.9063721,97.69043,59.7,-96.51667,38.625,1
207429,-0.16601559999999999,1.224609,0.08154297,17.8833,-64.5752,-19.34814,101.9971,2.839966,88.89038,18.00833,-1.391667,-0.625,1
207739,0.05810547,0.7592772999999999,-0.215332,-4.577637,7.69043,-3.967285,99.14612,-1.345825,88.88489,20.90833,-2.95,1.616667,1
208029,0.2685547,0.7519530999999999,0.19775389999999998,8.850098,31.79932,23.07129,102.0959,-4.53186,94.35059,19.36667,-0.06666667,-0.1916667,1
208349,-0.008789063,0.8457030999999999,-0.2670898,-5.371094,-22.27783,-0.9155272999999999,100.4095,-1.994019,94.86694,16.09167,-1.933333,0.625,1
208629,0.7021484,1.35791,0.11669919999999999,18.00537,3.540039,-20.99609,101.7828,-0.9283446999999999,88.97278,19.675,0.35833329999999997,2.883333,1
208969,0.1235352,0.8627929999999999,-0.1474609,-30.88379,36.74316,5.187988,99.82178,-1.812744,95.19104,12.84167,-3.65,-0.975,1
209279,0.296875,1.262695,-0.1958008,2.990723,-0.1831055,6.225586,99.93164,-1.6754149999999999,100.6952,14.45,4.191667,2.025,1
209520,-0.2167969,1.11377,-0.03759766,-6.469727,-2.929688,-4.150391,101.1237,-5.487671,102.3706,15.24167,-2.233333,-1.841667,1
209719,-0.046875,1.032715,-0.02929688,18.43262,-5.126953,8.178711,99.43726,-2.230225,95.97656,57.23333,-95.91666,43.6,1
209959,0.144043,1.110352,0.16650389999999998,-10.25391,-7.629395,-22.70508,100.5743,0.5108642999999999,95.89966,18.375,0.03333333,-0.49166669999999996,1
210199,-0.10107419999999999,0.8525391,-0.03710938,-10.68115,-1.89209,15.93018,97.83875,-0.5877686,95.44922,14.54167,-2.025,-0.975,1
210419,-0.12695309999999999,1.153809,-0.41162109999999996,1.6479489999999999,13.3667,10.68115,98.1134,0.1702881,96.43799,24.28333,1.4,0.3333333,1
210729,-0.06738281,1.100098,-0.046875,0.4882813,-21.60645,-10.13184,99.54712,-4.53186,97.14111,59.49166,-96.075,42.81667,1
211029,0.3286133,1.256348,-0.2539063,-0.793457,32.04346,-7.141113,100.1019,-2.5872800000000002,92.46094,22.55833,-1.358333,-0.9083334,1
211359,0.2729492,1.038086,-0.08300781,-10.55908,13.85498,18.37158,100.0964,1.439209,89.60449,15.7,-1.8,-2.45,1
211629,-0.052734380000000004,0.8432617,-0.2104492,-14.64844,7.93457,-8.056641,97.12463,-0.736084,93.10364,16.98333,-2.558333,2.225,1
211889,-0.03076172,0.9570312999999999,0.1435547,14.09912,4.821777,28.80859,100.5194,-3.3728029999999998,97.01477,17.60833,1.0,0.5416667,1
212149,0.001464844,0.7900391,-0.26269529999999996,-4.516602,22.52197,-9.58252,98.29468,-2.213745,104.892,60.68333,-94.28333,45.175,1
212600,0.14697269999999998,1.119141,-0.04296875,1.342773,-16.60156,16.23535,102.1289,1.318359,100.8105,14.025,-1.508333,-3.533333,1
212849,0.35595699999999997,0.9936522999999999,-0.15136719999999998,6.164551,47.18018,-17.27295,99.01428,1.054688,97.99805,22.41667,-5.766667,4.325,1
213189,-0.22070309999999999,1.069336,0.008789063,-7.080078,-24.53613,-1.525879,100.7886,-4.020996,100.1349,16.35,-1.85,-0.8583333999999999,1
213469,-0.1264648,0.9526367,-0.1757813,21.05713,-39.00146,8.422852,98.91541,-1.796265,90.51636,23.30833,-9.208333,3.483333,1
213799,0.12060549999999999,1.088867,0.02148438,18.00537,-16.72363,-3.173828,100.7007,3.109131,85.20447,17.20833,-2.175,-1.575,1
214099,0.02441406,0.7680663999999999,-0.25488279999999996,2.258301,-4.516602,-9.58252,98.82751,-1.098633,89.79126,19.8,-5.308333,-0.6083333,1
214329,0.0390625,1.350586,0.07275391,24.6582,-6.286621,12.146,100.8105,-2.532349,90.28564,16.53333,1.358333,1.683333,1
214549,-0.1835938,1.010742,-0.09765625,-10.25391,-8.972168,-19.22607,100.9918,-4.411011,93.28491,13.94167,-3.05,-1.933333,1
214759,0.3222656,1.152832,-0.3198242,-4.760742,6.04248,-10.80322,100.4315,-1.801758,90.47791,59.3,-95.10833,37.46667,1
215009,-0.3295898,1.058594,0.041015630000000004,1.7700200000000001,-20.01953,-25.20752,100.6677,3.460693,88.97278,16.7,0.48333329999999997,-2.591667,1
215239,0.1015625,0.8569336,-0.2436523,-8.605957,13.91602,-10.74219,98.21228,-1.307373,93.09814,59.23333,-94.00833,38.15,1
215489,0.1777344,1.273438,-0.18261719999999998,-4.821777,33.81348,6.04248,98.99231,-2.6477049999999998,99.20105,12.025,4.758333,0.2666667,1
215779,-0.044921880000000004,0.8818359,-0.15625,-4.089355,-21.66748,-10.74219,99.25598,-2.438965,101.8323,60.61666,-94.46667,44.8,1
216069,-0.1611328,1.193848,-0.01025391,37.47559,-78.85742,-6.286621,101.8817,-0.6701659999999999,95.28992,24.925,-3.433333,4.341667,1
216389,0.1323242,0.7368163999999999,-0.05322266,-18.85986,-149.231,25.45166,99.26697,4.059448,56.70593,16.7,-2.783333,-0.2833333,1
216679,0.3706055,0.9423828,-0.05029297,-28.01514,-67.38281,17.8833,93.68591,2.466431,20.16541,21.00833,-0.2666667,1.008333,1
217969,-0.02392578,0.8979492,-0.1025391,-8.056641,-102.1729,35.21729,93.7738,2.147827,-76.64612,14.28333,-3.183333,-0.2666667,1
218229,0.20605469999999998,1.071289,-0.2744141,-13.67188,36.62109,9.216309,93.33435,-0.8843994,-90.74158,23.90833,1.208333,4.65,1
218469,-0.07177734,0.8774413999999999,-0.04003906,-18.24951,-13.3667,-29.23584,96.90491,-3.03772,-81.13953,1.4583329999999999,-88.95834,72.30833,1
218799,0.3354492,1.09082,-0.1611328,-3.417969,9.338379,-2.624512,96.04248,-1.994019,-87.76978,3.333333,-89.34167,75.04166,1
219099,0.3461914,1.075684,-0.1079102,-8.605957,13.61084,16.54053,98.78906,0.9173583999999999,-96.62476,14.625,-2.533333,-0.8416665999999999,1
219469,0.1914063,1.30127,-0.20605469999999998,14.46533,-11.1084,16.60156,96.54236,-2.373047,-86.8689,1.35,-89.20834,73.49167,1
219689,-0.109375,1.066895,0.01757813,-4.943848,20.99609,-15.44189,96.81702,-3.988037,-82.55127,11.875,-0.6166667,-3.158333,1
219979,-0.06445313,0.7114258,-0.2397461,2.380371,14.4043,-0.6713867,94.46594,-1.170044,-77.57446,21.275,-3.441667,3.833333,1
220219,-0.10644529999999999,0.8452147999999999,0.07910156,3.112793,-13.85498,-25.20752,98.66821,1.658936,-80.42542,2.908333,-91.0,71.15833,1
220460,0.04150391,0.8212891,-0.07763672,-18.24951,7.263184,15.625,97.67395,-0.6317138999999999,-81.6449,12.85833,-3.883333,-0.55,1
220669,0.30957029999999996,1.156738,-0.03320313,4.516602,11.84082,-7.019043,97.63,-0.4614258,-79.12903,26.09167,0.2083333,4.425,1
220869,-0.12060549999999999,1.064453,-0.046875,-3.90625,-11.65771,-23.31543,98.58032,-2.8125,-78.23914,0.44166669999999997,-89.91666,68.175,1
221139,-0.07519531,0.828125,-0.16650389999999998,-4.943848,-18.43262,10.55908,96.27319,-0.3790283,-80.01343,23.35,-3.783333,-0.625,1
221409,-0.1538086,1.09668,0.08105469,3.234863,-29.90723,-13.48877,98.50891,2.60376,-84.88037,5.85,-92.125,72.34167,1
221699,-0.04394531,0.7641602,-0.2109375,2.01416,2.624512,-10.68115,95.71838,-0.5767822,-83.22693,19.825,-2.458333,-1.15,1
222050,0.1533203,1.267578,0.1767578,-4.882813,33.63037,12.57324,98.49792,-2.735596,-82.60071,0.4666667,-90.325,69.225,1
222339,-0.11621089999999999,0.7744141,-0.2348633,5.981445,-14.5874,11.84082,97.3938,-0.9063721,-79.28833,20.48333,-4.483333,-0.8833333,1
222609,-0.04150391,1.397461,0.03662109,15.19775,7.507324,-24.29199,100.7776,0.0769043,-81.4856,20.66667,0.3833333,0.09166667,1
222849,0.1171875,0.7929687999999999,-0.10693359999999999,-19.04297,13.97705,10.49805,97.64099,-1.389771,-80.9198,14.7,-3.041667,-1.4,1
223119,-0.30908199999999997,1.422363,0.03417969,4.943848,-41.25977,28.62549,98.33313,-1.340332,-80.48035,22.39167,1.9583329999999999,1.883333,1
223449,-0.1328125,0.6923828,-0.05615234,-16.72363,-14.03809,-7.995605,97.57507,-0.5163574,-80.94177,12.28333,-4.033333,1.525,1
223739,-0.07470703000000001,1.368164,-0.08886719,4.577637,2.807617,-19.28711,100.5139,1.131592,-89.23096,20.23333,2.158333,-0.1333333,1
224079,0.1435547,0.7685546999999999,-0.10107419999999999,-16.60156,6.225586,13.24463,98.42102,0.0769043,-92.42249,13.60833,-3.833333,0.4583333,1
224279,-0.125,1.154785,-0.2470703,0.24414059999999999,16.78467,4.02832,99.69543,1.005249,-87.53906,23.13333,-0.15833329999999998,1.308333,1
224499,-0.00390625,1.041504,-0.04785156,-12.69531,1.159668,-26.18408,100.7336,-2.334595,-88.23669,7.258333,-91.05,72.53333,1
224749,0.001953125,0.7285155999999999,-0.3120117,9.887695,-6.713867,11.84082,99.66248,-0.6536865,-88.52783,19.51667,-6.616667,-0.525,1
225009,0.08300781,1.298828,0.04785156,29.66309,-7.69043,-38.57422,102.3102,1.290894,-90.44495,26.24167,-0.2666667,2.241667,1
225249,0.06201172,0.7602538999999999,-0.07763672,-33.69141,12.02393,9.70459,99.71191,0.8349609,-89.55505,16.0,-4.758333,-1.433333,1
225510,-0.05957031,1.0625,-0.09716797,18.06641,-27.03857,7.751465,98.84949,2.312622,-86.57227,26.34167,-0.775,-1.85,1
225729,-0.06738281,1.063965,0.01318359,1.586914,1.098633,-17.21191,99.646,-1.779785,-89.18701,5.066667,-91.49167,74.68333,1
226019,0.01464844,0.6879883,-0.2636719,-4.577637,-23.07129,5.493164,98.70117,0.0,-90.12085,19.675,-1.416667,1.275,1
226279,-0.05712891,1.224609,0.04736328,4.333496,-34.05762,-6.347656,101.8817,3.845215,-97.03125,16.58333,-0.9666665999999999,-1.141667,1
226549,-0.03710938,0.7421875,-0.19775389999999998,-2.075195,19.53125,-7.995605,98.78357,0.2362061,-96.74011,20.7,-4.375,0.7416667,1
226849,0.25537109999999996,1.273926,0.1362305,17.76123,19.16504,16.41846,101.3324,-2.39502,-93.99902,4.325,-90.19167,76.58334,1
227159,-0.07324219,0.8046875,-0.2734375,0.793457,-18.85986,13.12256,101.2115,0.7635498,-94.9823,18.975,-5.616667,-0.05,1
227499,-0.09423828000000001,1.357422,-0.06591797,2.197266,-13.30566,-1.8310549999999999,103.3704,4.735107,-98.21777,14.2,-0.65,-3.091667,1
227779,0.02929688,0.8530272999999999,-0.23339839999999998,-3.662109,-2.868652,-12.45117,100.5194,0.9503174,-97.50916,20.775,-4.558333,-0.9,1
228099,0.2080078,1.347656,0.10498049999999999,22.33887,5.065918,19.47021,101.8707,-1.73584,-97.63,16.06667,-0.8583333999999999,-1.491667,1
228379,-0.01367188,0.8188477,-0.2158203,5.981445,-47.42432,23.25439,100.2832,0.1757813,-104.4305,20.05,-6.775,-1.191667,1
228749,0.07568359,0.8959961,-0.015136720000000001,-17.94434,0.793457,15.74707,99.28894,2.993774,-110.083,12.63333,-0.9416667,-1.616667,1
229050,0.06689453000000001,0.8461913999999999,-0.08984375,6.652832,34.48486,-15.99121,98.31116,0.9777832,-106.3971,23.225,-6.958333,1.266667,1
229260,0.06689453000000001,0.8461913999999999,-0.08984375,6.652832,34.48486,-15.99121,98.31116,0.9777832,-106.3971,22.29167,3.033333,0.1833333,1
229459,-0.06542969,0.7700195,-0.13916019999999998,-2.746582,-21.30127,5.615234,98.56934,0.1098633,-102.7222,9.05,-92.46667,79.00833,1
229709,-0.2080078,0.9213867,-0.5737304999999999,11.1084,7.080078,-24.71924,101.8597,0.38452149999999996,-105.4797,16.8,2.475,0.7166667,1
229950,0.10644529999999999,1.306152,-0.05126953,2.502441,-11.04736,9.643555,103.8702,4.850464,-107.9956,14.83333,-0.8833333,-3.116667,1
230179,0.1650391,0.6938477,-0.1538086,-4.333496,49.80469,-22.15576,98.89893000000001,1.933594,-105.2765,20.74167,-7.791667,1.566667,1
230479,-0.006347656,1.492188,0.02783203,15.50293,28.56445,17.76123,102.7002,-2.180786,-102.6782,7.4,-90.15,81.21667,1
230769,-0.04394531,0.8173828,-0.1811523,-13.42773,-41.80908,14.77051,101.2445,0.1538086,-106.4355,15.23333,-8.041667,1.433333,1
231089,0.028808590000000002,1.166016,-0.03125,15.01465,-46.02051,3.601074,103.222,5.037231,-116.7957,14.64167,-1.008333,-1.183333,1
231379,0.22998049999999998,0.7299804999999999,-0.109375,-10.43701,56.7627,-9.82666,100.6018,2.235718,-114.7412,14.85,-91.825,84.33334,1
231660,-0.15625,1.025391,0.2675781,11.84082,12.08496,33.63037,102.4475,-0.1318359,-111.3684,19.28333,-0.3916667,0.55,1
231909,-0.07714844,0.6811522999999999,-0.1777344,-19.9585,-31.61621,6.103516,100.1074,0.5493163999999999,-109.9567,17.75,-1.391667,1.341667,1
232209,-0.12744139999999998,0.9941405999999999,0.1699219,7.751465,-52.36816,-12.39014,101.3983,2.37854,-117.3889,18.38333,-0.075,-0.125,1
232509,0.05029297,0.7851562999999999,-0.1791992,-5.126953,9.70459,-2.502441,99.17908,-0.0604248,-117.8064,16.3,-2.116667,0.2583333,1
232819,0.24072269999999998,0.9990234,0.2314453,16.8457,47.72949,10.55908,102.3871,-1.785278,-115.1752,19.5,-1.233333,0.75,1
233189,-0.07177734,1.158203,-0.152832,11.77979,-28.38135,14.89258,101.3434,-0.5822754,-117.6086,21.51667,-7.708333,4.708333,1
233479,0.09277344,1.032715,0.1645508,2.807617,-7.385254,-36.37695,102.7991,1.884155,-118.4216,21.19167,-1.716667,0.5833332999999999,1
233699,-0.0034179690000000003,0.7851562999999999,-0.15917969999999998,-7.080078,43.94531,-1.159668,99.4812,-0.8843994,-112.9065,17.625,-3.491667,0.15833329999999998,1
233959,0.1000977,1.138184,-0.5351563,4.211426,10.86426,8.666992,99.89319,-0.9887695,-108.1714,17.25833,3.583333,2.783333,1
235159,0.1708984,1.270996,-0.31835939999999996,23.92578,-10.68115,3.173828,101.7554,0.08239746,-105.3754,15.625,5.566667,1.758333,1
235369,-0.19824219999999998,1.15625,-0.121582,-3.173828,-27.16064,-22.09473,102.821,-2.092896,-109.1162,13.21667,-2.783333,-2.758333,1
235579,0.05908203,0.7104492,-0.21386719999999998,-11.1084,-39.61182,14.34326,99.83826,1.472168,-116.9769,18.21667,-2.95,-0.65,1
235839,-0.04833984,1.473145,-0.026367190000000002,8.789063,-45.77637,-10.92529,102.3541,4.284668,-123.739,17.09167,-1.366667,-1.125,1
236100,0.11083979999999999,0.7236328,-0.04980469,-33.99658,-19.65332,15.07568,99.36035,1.4556879999999999,-128.1885,11.08333,-4.216667,0.7000000000000001,1
236309,0.11083979999999999,0.7236328,-0.04980469,-33.99658,-19.65332,15.07568,99.36035,1.4556879999999999,-128.1885,21.35,1.283333,0.1416667,1
236569,-0.04199219,0.9428711,-0.06884766,-14.83154,-0.24414059999999999,-19.71436,100.1074,-1.208496,-129.8639,11.98333,-1.225,-3.008333,1
236799,0.1611328,1.091309,-0.47412109999999996,5.371094,-0.8544921999999999,-6.164551,100.2777,-0.1318359,-136.5491,24.325,-92.20834,85.79166,1
237109,0.1767578,1.339844,-0.08886719,16.90674,6.530762,10.25391,103.1836,3.175049,-136.2524,12.30833,0.04166667,-3.041667,1
237359,0.1572266,1.130371,-0.1235352,6.04248,39.55078,-14.52637,101.5137,0.01098633,-124.8267,24.10833,-6.65,3.208333,1
237639,-0.3203125,1.190918,-0.05908203,2.929688,11.23047,-28.74756,102.8815,-4.075928,-120.954,12.94167,-0.9583332999999999,-2.208333,1
237969,-0.2304688,1.378418,-0.1020508,7.69043,-32.04346,8.789063,102.2607,-0.9228516,-125.0903,21.69167,-7.933333,4.641667,1
238279,0.2958984,1.197266,-0.10644529999999999,-5.859375,6.469727,17.8833,103.5077,3.202515,-127.7051,13.60833,-0.6166667,-2.475,1
238509,-0.01757813,0.6704102,-0.10693359999999999,-10.0708,20.81299,-4.333496,99.89868,-0.3625488,-123.1458,19.46667,-3.841667,3.125,1
238729,0.31835939999999996,1.236328,0.2475586,25.32959,27.16064,34.60693,103.1561,-3.466187,-120.141,13.825,-89.6,84.13333,1
238959,-0.02148438,0.7363280999999999,-0.09960938,-20.50781,-34.60693,-6.896973,102.3376,-0.8129883,-120.2289,11.64167,-3.791667,0.525,1
239199,-0.14306639999999998,1.247559,-0.1040039,4.882813,0.6713867,-11.90186,103.3044,0.5053711,-127.6831,20.40833,-90.41666,86.11667,1
239439,0.2070313,1.058105,-0.08691406,-22.64404,28.25928,21.85059,103.3978,2.49939,-127.0404,12.96667,-1.25,-4.125,1
239719,-0.1103516,0.7416992,-0.1689453,-0.9765625,13.00049,-15.07568,99.27795,-0.5163574,-121.1847,20.73333,-4.866667,0.5666667,1
239949,0.2265625,1.013672,0.2314453,12.3291,10.92529,28.38135,100.5414,-2.2796629999999998,-120.4871,15.34167,-90.96667,83.8,1
240209,-0.04931641,0.7431641,-0.0703125,-13.5498,-21.30127,-6.713867,99.78882,-0.5548096,-120.8057,10.66667,-2.966667,-0.17500000000000002,1
240459,0.2421875,1.185059,0.1621094,9.399414,-13.5498,-26.24512,101.7389,1.032715,-129.6552,23.84167,-0.7916667,2.05,1
240769,0.1362305,0.6777344,-0.06103516,-21.54541,43.88428,5.004883,98.94287,0.3295898,-129.6222,11.88333,-3.766667,1.033333,1
241029,-0.3544922,1.128906,-0.04248047,18.85986,-22.94922,35.03418,101.3763,-1.159058,-120.4761,16.56667,-90.84167,83.825,1
241339,-0.06640625,0.8222655999999999,0.0009765625,-6.896973,-31.79932,-21.78955,101.6455,-1.884155,-120.8167,10.70833,-2.258333,-2.416667,1
241589,-0.07275391,1.045898,-0.5473633,4.821777,-31.31104,-8.056641,100.871,0.8184813999999999,-130.8966,18.20833,1.608333,2.758333,1
241849,-0.06445313,0.6674804999999999,0.007324219000000001,-31.55518,14.16016,26.24512,100.0305,1.09314,-133.775,24.60833,-91.46667,85.825,1
242149,0.2241211,1.175781,-0.3266602,6.835938,-4.272461,17.33398,100.7281,-0.8404541,-125.9143,19.96667,-91.36667,84.85833,1
242439,-0.004394531,0.6982421999999999,-0.0390625,-13.73291,2.807617,-13.61084,100.6842,-1.340332,-124.986,18.94167,-91.15,84.99167,1
242819,-0.22070309999999999,1.430664,0.03417969,17.76123,17.39502,-21.66748,102.7167,-0.07141113,-126.4417,25.53333,-1.066667,2.208333,1
243059,0.144043,0.640625,-0.02148438,-20.75195,33.99658,7.93457,99.98108,-1.104126,-124.5135,11.80833,-5.183333,3.1,1
243359,-0.16699219999999998,1.186523,-0.4448242,-3.234863,12.39014,13.12256,101.8433,-0.7470703,-118.7183,17.36667,3.458333,0.6333333,1
243599,-0.03710938,0.890625,-0.03662109,-16.05225,-1.708984,-20.62988,102.2772,-2.730103,-120.097,10.36667,-1.391667,-2.533333,1
243839,-0.09912109000000001,0.9448242,-0.20556639999999998,16.17432,-54.62646,21.42334,101.2225,-1.499634,-125.5518,17.79167,-8.891666,0.31666669999999997,1
244089,0.07275391,1.266602,-0.05126953,9.94873,-1.586914,7.751465,103.6505,2.922363,-128.2764,21.55833,-90.71667,86.65833,1
244429,0.1655273,0.9174804999999999,-0.15478519999999998,7.324219,40.34424,-23.19336,100.047,-0.7525634999999999,-120.2179,20.925,-7.9,-0.375,1
244659,-0.1479492,1.217285,0.04052734,10.80322,14.89258,-11.96289,102.0465,-3.702393,-118.103,13.625,-90.59167,83.65833,1
244929,-0.10839839999999999,0.6572266,-0.1333008,-10.00977,-28.32031,6.286621,100.2338,-0.4833984,-119.4598,18.125,-2.583333,2.091667,1
245219,0.01416016,1.013184,0.2167969,-5.7983400000000005,-10.92529,-35.46143,102.7826,2.411499,-126.2384,21.34167,-1.683333,-0.7916667,1
245489,-0.0078125,0.6972655999999999,-0.1235352,-7.8125,27.03857,-4.333496,99.33289,-0.7745361,-123.5632,19.81667,-2.208333,1.358333,1
245819,0.24462889999999998,1.006836,0.3037109,16.11328,13.00049,20.32471,101.3873,-2.334595,-123.6731,21.35833,-1.575,0.5916667,1
246119,-0.022460940000000002,0.6074219,-0.1259766,4.882813,-30.70068,8.850098,99.79431,0.4614258,-123.6731,23.125,-3.508333,-0.48333329999999997,1
246429,-0.22558589999999998,1.149414,0.06787109,10.98633,-24.59717,-17.94434,103.1177,4.202271,-128.4686,18.23333,-0.85,-1.9000000000000001,1
246709,-0.03271484,0.6352538999999999,-0.1630859,-3.051758,26.67236,-3.540039,100.014,-0.1757813,-123.6292,22.84167,-4.566667,0.4166667,1
247039,0.2695313,1.259277,0.14306639999999998,13.79395,41.38184,18.06641,101.7499,-3.482666,-121.2616,18.71667,-0.3833333,-1.475,1
247349,-0.05078125,0.6484375,-0.21289059999999999,9.94873,-57.9834,18.79883,100.1514,-1.010742,-125.0024,22.19167,-6.666667,-0.8833333,1
247569,0.01074219,1.22168,0.1181641,3.234863,1.037598,-25.39063,102.9034,0.3186035,-129.6497,24.04167,-0.7083332999999999,1.683333,1
247800,0.01074219,1.22168,0.1181641,3.234863,1.037598,-25.39063,102.9034,0.3186035,-129.6497,12.06667,-0.925,-4.441667,1
247999,-0.2885742,1.270996,-0.5488280999999999,7.080078,10.25391,16.6626,100.3326,-0.5438232,-117.6855,15.69167,-93.25833,80.825,1
248269,0.01074219,1.446289,0.05761719,12.75635,15.38086,-8.178711,102.2388,-4.163818,-118.515,14.85,0.2583333,-1.716667,1
248489,-0.13476559999999999,1.080566,-0.184082,21.78955,-45.89844,9.277344,101.4752,-0.9393311,-123.8599,21.225,-8.275,2.875,1
248799,0.23291019999999998,1.277832,-0.1328125,-2.746582,-6.103516,15.07568,104.3427,3.087158,-127.771,11.55833,-0.2833333,-4.166667,1
249129,0.1279297,1.270508,-0.1801758,-1.525879,23.13232,-5.065918,101.2994,0.5767822,-121.7395,22.7,-3.325,1.416667,1
249439,-0.20947269999999998,1.02832,-0.04443359,-11.53564,-4.882813,-24.53613,102.4036,-2.625732,-120.3497,11.93333,-1.2,-1.791667,1
249709,0.2397461,1.198242,-0.3071289,-9.094238,-9.521484,-6.591797,102.085,-0.4724121,-128.8312,20.93333,-91.59167,84.45834,1
249989,-0.09228516,1.445801,-0.04443359,7.324219,-24.41406,-4.577637,103.1836,3.565063,-130.6274,16.45,-0.7916667,-3.341667,1
250249,0.04541016,0.730957,-0.1835938,9.70459,22.64404,-12.45117,99.53613,0.39550779999999996,-127.5732,21.28333,-7.233333,-0.008333334000000001,1
250529,0.10107419999999999,1.499023,0.04980469,4.455566,23.37646,6.896973,102.7826,-4.070435,-123.2941,13.75833,0.05,-2.85,1
250859,-0.07177734,0.8500977,-0.2480469,1.708984,-41.80908,12.146,100.0964,-0.4504395,-127.8204,17.45833,-7.633333,-0.04166667,1
252120,-0.456543,1.32373,-0.41064449999999997,25.26855,-10.68115,-14.64844,101.2665,0.08239746,-129.5178,17.51667,3.916667,-0.03333333,1
252459,-0.05712891,0.7460937999999999,-0.06542969,-14.46533,0.3662109,16.72363,100.47,0.9283446999999999,-132.4017,12.51667,-3.233333,-0.48333329999999997,1
252749,0.3349609,1.321289,-0.1054688,25.02441,8.666992,8.850098,101.3763,-0.6481933999999999,-128.6115,20.90833,4.508333,1.766667,1
253099,-0.07177734,0.6660155999999999,-0.06005859,-15.93018,-5.7983400000000005,-11.1084,100.6293,-0.7141113,-124.4971,12.20833,-4.191667,0.1083333,1
253299,-0.1235352,1.166504,0.09375000000000001,4.516602,-6.896973,-17.27295,102.4695,0.9613037,-129.8859,23.89167,-90.28333,83.96667,1
253539,0.2070313,0.9589844,-0.07226563,-23.98682,14.77051,26.42822,102.8046,2.493896,-133.8245,12.53333,-1.141667,-2.675,1
253810,0.02050781,0.7519530999999999,-0.21728519999999998,6.591797,32.89795,-15.93018,100.0909,-0.368042,-127.2217,20.04167,-7.983333,1.175,1
254019,0.08251953000000001,0.9775391,0.1176758,23.74268,-6.286621,32.10449,102.3871,-1.30188,-127.1008,21.99167,0.5916667,0.1,1
254249,-0.1254883,0.5864258,-0.10058589999999999,-22.03369,-26.00098,3.601074,99.62402,-0.5328369,-122.7338,18.14167,-2.766667,2.866667,1
254589,0.07373047,1.030762,0.1723633,-0.3662109,-25.02441,-27.16064,103.0023,2.136841,-128.7762,21.46667,-1.733333,-0.2666667,1
254859,-0.02978516,0.6801758,-0.1616211,-0.1831055,23.92578,-8.178711,99.61853,-0.19775389999999998,-127.5348,22.275,-90.78333,82.175,1
255119,0.2836914,1.337402,-0.12451169999999999,18.98193,-6.591797,7.385254,101.0742,0.6481933999999999,-125.5847,21.11667,5.116667,1.983333,1
255369,-0.009765625,0.7543945,-0.05517578,-19.104,-23.98682,-14.28223,100.1129,-0.01098633,-127.0569,10.025,-2.183333,-0.65,1
255699,-0.3208008,1.291504,-0.2558594,24.53613,-25.26855,-9.216309,102.3596,1.356812,-137.0654,19.275,2.733333,2.516667,1
255939,-0.0234375,0.7226562999999999,-0.08251953000000001,-13.42773,27.09961,6.652832,101.4478,0.8514404,-135.9119,27.01667,-89.68333,83.84167,1
256209,-0.109375,1.20752,-0.28662109999999996,16.35742,-27.03857,4.333496,101.6565,1.966553,-133.429,23.14167,-0.2,-1.25,1
256499,-0.2514648,1.006348,-0.02392578,-7.873535,-16.8457,-24.78027,101.8268,-0.3131104,-136.8567,12.425,-1.641667,-1.125,1
256839,0.30957029999999996,1.158203,-0.48242189999999996,-0.8544921999999999,-3.051758,-10.19287,102.3212,2.197266,-147.3651,21.14167,4.125,-0.08333334,1
257109,0.1118164,0.8994141,-0.01757813,-22.46094,17.08984,18.79883,101.8048,3.510132,-151.1938,13.5,-1.241667,-2.183333,1
257409,-0.22998049999999998,1.245605,-0.2978516,12.02393,6.9580079999999995,6.286621,101.4258,0.5218505999999999,-142.4432,18.76667,2.241667,0.2166667,1
257649,0.2529297,1.4550779999999999,0.01660156,12.93945,25.32959,12.57324,102.5848,-2.785034,-143.1519,14.725,-1.241667,-1.591667,1
257869,-0.1123047,0.8637695,-0.3120117,12.146,-1.403809,14.77051,102.6398,-0.3405762,-141.394,30.96667,-88.425,84.48333,1
258109,-0.060546880000000004,0.703125,-0.17431639999999998,13.24463,-5.126953,-20.38574,104.1669,1.884155,-136.9226,19.11667,-0.15,-0.75,1
258339,0.04589844,0.7915038999999999,-0.2080078,-8.605957,1.159668,-3.78418,101.3049,0.3131104,-139.801,31.575,-88.63333,84.225,1
258579,-0.1723633,1.317383,-0.37255859999999996,-1.037598,-7.873535,20.32471,101.5027,1.131592,-137.6312,16.725,2.483333,1.383333,1
258879,-0.01757813,0.8564453,-0.04394531,-17.39502,-9.643555,-19.28711,101.0193,0.04943848,-139.7461,32.425,-88.85,83.675,1
259140,-0.18603519999999998,0.8979492,-0.2246094,1.159668,-32.34863,15.99121,100.9808,0.8789062999999999,-144.3988,22.46667,-4.3,-1.533333,1
259359,0.2509766,1.016113,0.03759766,4.211426,-25.39063,8.300781,100.7501,3.262939,-149.9908,38.31667,-88.625,83.89167,1
259659,0.09423828000000001,0.8261719,-0.16601559999999999,-5.859375,-12.26807,-2.075195,99.09119,1.2854,-154.1766,16.20833,-3.966667,2.383333,1
