Timestamp,AccX,AccY,AccZ,GyroX,GyroY,GyroZ,AngX,AngY,AngZ,MagX,MagY,MagZ,Tag
0,-0.26269529999999996,0.871582,-0.4130859,-0.12207029999999999,2.807617,4.943848,114.2249,14.33167,91.98853,27.25,-17.925,3.225,1
503,-0.215332,0.8818359,-0.41992189999999996,-3.540039,0.4882813,3.356934,113.5876,12.12891,92.43347,15.23333,-7.083333,-0.7000000000000001,1
723,-0.19042969999999998,0.8955078,-0.4135742,-1.7700200000000001,1.586914,2.197266,112.7307,11.82129,91.90613,15.26667,-6.95,-0.5833332999999999,1
923,-0.2026367,0.8989258,-0.3999023,-2.075195,0.3662109,1.403809,112.1704,11.43677,91.87866,15.30833,-6.75,-0.25,1
2163,-0.1889648,0.9077147999999999,-0.37207029999999996,0.3051758,0.6713867,0.12207029999999999,110.5499,10.88745,91.82373,25.18333,-21.69167,2.625,1
2443,-0.1845703,0.9086913999999999,-0.3671875,0.0,0.4882813,0.3051758,110.528,10.81055,91.79077,15.55,-6.2,-0.01666667,1
2633,-0.18603519999999998,0.9130859,-0.3710938,-0.06103516,-0.4882813,-0.3051758,110.5389,10.76111,91.77429,15.50833,-6.366667,0.075,1
2863,-0.1835938,0.9077147999999999,-0.36425779999999996,-0.42724609999999996,-0.06103516,-0.3051758,110.5609,10.82153,91.68091,25.125,-21.7,2.658333,1
3153,-0.18945309999999999,0.9082030999999999,-0.3686523,0.3662109,0.0,-0.6713867,110.5994,10.88745,91.70288,15.48333,-6.241667,0.2,1
3413,-0.19384769999999998,0.9091796999999999,-0.37304689999999996,-0.6713867,-0.4882813,1.037598,110.7806,10.90393,91.66992,15.50833,-6.383333,-0.1833333,1
3663,-0.1855469,0.9096679999999999,-0.3701172,-1.89209,-0.5493163999999999,1.037598,110.4236,10.61829,91.30188,24.93333,-22.10833,2.541667,1
3963,-0.17871089999999998,0.9145508,-0.3608398,-0.3662109,0.3662109,0.12207029999999999,110.2258,10.49194,91.2085,15.56667,-6.191667,0.1083333,1
4213,-0.1811523,0.9155272999999999,-0.3681641,-0.42724609999999996,0.12207029999999999,0.0,110.2917,10.43152,91.14258,15.60833,-6.216667,-0.05,1
4463,-0.1801758,0.9130859,-0.362793,-0.3662109,0.12207029999999999,0.0,110.2094,10.42053,91.08765,15.59167,-6.15,-0.01666667,1
4693,-0.17480469999999998,0.9125977,-0.3598633,0.5493163999999999,1.6479489999999999,0.6713867,110.2313,10.2887,91.06018,15.575,-6.275,0.05833333,1
5003,-0.1640625,0.918457,-0.3706055,1.403809,4.333496,4.394531,110.4291,9.316406,91.40625,23.85833,-22.71667,3.258333,1
5303,-0.1640625,0.9443359,-0.3632813,-7.446289,-6.347656,0.24414059999999999,109.8688,7.849731,91.08215,23.18333,-24.03333,2.625,1
5613,-0.1044922,0.9633788999999999,-0.4174805,-3.112793,9.58252,3.967285,109.2371,6.992798,89.53308,15.81667,-5.3,-2.166667,1
5843,-0.1015625,0.9335937999999999,-0.2993164,-6.774902,4.455566,4.02832,107.1661,5.795288,90.58228,16.25833,-5.583333,-0.2083333,1
6073,-0.08544922,0.9423828,-0.2792969,-2.807617,0.42724609999999996,-0.8544921999999999,105.9082,5.185547,91.1261,21.26667,-26.78333,1.625,1
6303,-0.08642578000000001,0.9511719,-0.2973633,0.9765625,-0.06103516,-0.6713867,106.0181,5.29541,91.11511,16.26667,-5.016667,0.1,1
6573,-0.09033203000000001,0.9516602,-0.3032227,0.7324219,0.06103516,-0.42724609999999996,106.1719,5.383301,91.07117,16.21667,-5.116667,-0.05,1
6783,-0.09326172,0.9492187999999999,-0.2983398,0.4882813,0.4882813,-0.06103516,106.1719,5.388794,91.07117,16.20833,-5.158333,0.05,1
7003,-0.08837891,0.949707,-0.30273439999999996,0.0,0.1831055,0.0,106.2103,5.31189,91.08215,21.25833,-26.46667,1.883333,1
7253,-0.09033203000000001,0.9467772999999999,-0.2993164,0.24414059999999999,0.0,-0.3662109,106.2708,5.317383,91.07117,16.2,-5.2,0.06666667,1
7493,-0.09375000000000001,0.9462891,-0.30175779999999996,-0.1831055,-0.1831055,-0.24414059999999999,106.4026,5.421753,91.06018,21.4,-26.35,1.733333,1
7733,-0.09326172,0.9501953,-0.3037109,-0.3051758,0.0,0.0,106.452,5.432739,91.07666,16.16667,-5.116667,0.0,1
8023,-0.09130859,0.9492187999999999,-0.30224609999999996,-0.12207029999999999,0.1831055,0.1831055,106.5344,5.366821,91.14807,21.35,-26.55833,1.808333,1
8323,-0.09179688,0.9487304999999999,-0.3007813,0.0,-0.12207029999999999,-0.3051758,106.6278,5.377808,91.17554,16.14167,-5.083333,0.04166667,1
8623,-0.09326172,0.9467772999999999,-0.300293,0.3051758,0.06103516,-0.12207029999999999,106.7981,5.443726,91.17554,21.33333,-26.31667,1.825,1
8923,-0.09179688,0.9467772999999999,-0.3051758,-0.3662109,-0.1831055,0.0,106.9025,5.454712,91.19202,16.20833,-5.175,-0.025,1
9223,-0.09375000000000001,0.9492187999999999,-0.3041992,0.0,0.0,0.0,106.9519,5.449219,91.203,21.28333,-26.275,1.558333,1
9533,-0.09277344,0.9492187999999999,-0.30126949999999997,-0.24414059999999999,0.0,0.0,106.9574,5.443726,91.18652,21.38333,-26.34167,1.875,1
9803,-0.09423828000000001,0.9487304999999999,-0.3051758,0.06103516,0.0,0.0,106.9739,5.443726,91.18103,16.16667,-5.066667,0.0,1
10083,-0.09472656,0.9492187999999999,-0.30273439999999996,0.1831055,0.06103516,0.0,107.1112,5.438232,91.2085,16.175,-5.158333,0.025,1
10303,-0.09472656,0.9482421999999999,-0.30273439999999996,0.12207029999999999,0.06103516,0.0,107.2211,5.427246,91.24146,21.43333,-26.40833,1.733333,1
10533,-0.09570313,0.9472655999999999,-0.30224609999999996,0.0,0.12207029999999999,0.0,107.276,5.427246,91.25793,16.14167,-5.133333,0.008333334000000001,1
10803,-0.09570313,0.9487304999999999,-0.3051758,0.06103516,0.06103516,0.0,107.3309,5.421753,91.26892,16.175,-5.175,-0.025,1
11013,-0.09521484000000001,0.9467772999999999,-0.30273439999999996,-0.1831055,0.0,0.0,107.3309,5.427246,91.27441,16.18333,-5.183333,-0.008333334000000001,1
11233,-0.09521484000000001,0.9472655999999999,-0.3041992,0.24414059999999999,0.1831055,0.0,107.3529,5.427246,91.27991,21.45,-26.31667,1.783333,1
11483,-0.09375000000000001,0.9487304999999999,-0.30273439999999996,0.3662109,0.06103516,0.0,107.3859,5.427246,91.29089,16.20833,-5.225,0.0,1
11723,-0.09472656,0.9477538999999999,-0.30175779999999996,0.1831055,0.0,0.0,107.4243,5.427246,91.30188,21.39167,-26.29167,1.741667,1
11963,-0.09277344,0.9462891,-0.3032227,-0.12207029999999999,-0.1831055,0.0,107.4573,5.427246,91.30188,16.21667,-5.2,-0.008333334000000001,1
12233,-0.09521484000000001,0.9458008,-0.2993164,0.0,0.0,0.0,107.4573,5.432739,91.29639,16.2,-5.2,0.0,1
12443,-0.09521484000000001,0.9487304999999999,-0.3032227,-0.24414059999999999,0.0,0.0,107.4738,5.432739,91.29639,16.16667,-5.133333,-0.05,1
12673,-0.09521484000000001,0.9492187999999999,-0.2993164,-0.24414059999999999,-0.12207029999999999,0.0,107.4023,5.438232,91.2854,16.2,-5.175,-0.01666667,1
12943,-0.09716797,0.9501953,-0.3007813,0.5493163999999999,0.1831055,0.0,107.4518,5.438232,91.30188,21.5,-26.28333,1.783333,1
13203,-0.09521484000000001,0.9487304999999999,-0.3007813,0.24414059999999999,0.06103516,0.0,107.5177,5.438232,91.31287,16.16667,-5.125,0.05833333,1
13453,-0.09521484000000001,0.9477538999999999,-0.30224609999999996,0.0,0.0,0.0,107.5726,5.438232,91.33484,21.425,-26.46667,2.075,1
13763,-0.09570313,0.9487304999999999,-0.3051758,0.0,0.0,0.0,107.655,5.438232,91.35132,21.475,-26.325,1.825,1
14053,-0.09570313,0.949707,-0.3037109,-0.1831055,0.0,0.0,107.6385,5.443726,91.3678,21.44167,-26.41667,1.808333,1
14373,-0.09570313,0.949707,-0.3032227,0.4882813,0.12207029999999999,0.0,107.655,5.449219,91.37329,16.20833,-5.225,0.0,1
14633,-0.09570313,0.9472655999999999,-0.30175779999999996,-0.1831055,0.0,0.0,107.6495,5.449219,91.37878,16.19167,-5.175,-0.008333334000000001,1
14823,-0.09619141,0.9487304999999999,-0.30126949999999997,0.0,0.06103516,0.0,107.6385,5.454712,91.37878,16.175,-5.225,0.03333333,1
15033,-0.09570313,0.9472655999999999,-0.2998047,0.3051758,0.0,0.0,107.6495,5.454712,91.39526,16.2,-5.216667,0.1083333,1
15253,-0.09472656,0.949707,-0.3066406,-0.06103516,0.1831055,0.0,107.7484,5.449219,91.41724,16.18333,-5.191667,-0.05,1
15463,-0.09521484000000001,0.9472655999999999,-0.30224609999999996,-0.3051758,0.0,0.0,107.6385,5.454712,91.42273,21.43333,-26.14167,1.8,1
15693,-0.09619141,0.9492187999999999,-0.30224609999999996,-0.12207029999999999,-0.12207029999999999,0.0,107.6331,5.460205,91.40625,16.175,-5.141667,0.025,1
15953,-0.09667969,0.9516602,-0.3188477,-1.281738,-0.42724609999999996,0.0,107.5726,5.476685,91.34583,21.50833,-26.325,1.616667,1
16193,-0.10107419999999999,0.9467772999999999,-0.27783199999999997,0.6713867,0.3051758,0.06103516,107.1222,5.465698,91.33484,16.25833,-5.291667,0.2083333,1
16483,-0.09521484000000001,0.9526367,-0.3051758,1.159668,0.4882813,0.0,107.3694,5.460205,91.21948,21.35833,-26.31667,1.733333,1
16773,-0.09765625,0.9453125,-0.2963867,-0.4882813,0.0,-0.06103516,107.2101,5.482178,91.11511,16.16667,-5.133333,0.05833333,1
17083,-0.09814453000000001,0.9448242,-0.2973633,0.24414059999999999,0.0,-0.12207029999999999,107.1167,5.482178,91.00525,21.41667,-26.19167,1.725,1
18353,-0.09472656,0.9487304999999999,-0.3032227,0.1831055,-0.12207029999999999,0.0,107.1497,5.476685,90.91736,16.175,-5.116667,0.06666667,1
18583,-0.09716797,0.9472655999999999,-0.2993164,-0.3051758,0.0,0.0,107.2046,5.487671,90.89539,21.25833,-26.325,1.808333,1
18853,-0.09863281,0.9477538999999999,-0.300293,-0.12207029999999999,0.0,0.0,107.1881,5.493164,90.89539,16.2,-5.175,0.01666667,1
19103,-0.09667969,0.9492187999999999,-0.2998047,0.3662109,0.24414059999999999,0.0,107.1881,5.498657,90.90088,21.44167,-26.34167,1.8,1
19403,-0.09619141,0.9472655999999999,-0.2993164,0.0,0.0,0.0,107.276,5.498657,90.93384,21.41667,-26.29167,1.8666669999999999,1
19713,-0.09570313,0.9492187999999999,-0.30175779999999996,-0.12207029999999999,0.12207029999999999,0.0,107.3749,5.482178,90.99426,16.19167,-5.141667,0.008333334000000001,1
19943,-0.09423828000000001,0.9492187999999999,-0.30273439999999996,0.0,0.0,0.0,107.3859,5.482178,91.01624,16.15833,-5.091667,0.03333333,1
20173,-0.09667969,0.949707,-0.3076172,0.06103516,-0.06103516,0.0,107.5012,5.476685,91.04919,21.39167,-26.2,1.975,1
20403,-0.09716797,0.9472655999999999,-0.30175779999999996,-0.3051758,0.0,0.0,107.4847,5.471191,91.05469,16.15833,-5.141667,0.05,1
20673,-0.09619141,0.9492187999999999,-0.3056641,0.0,0.0,0.0,107.5287,5.476685,91.06018,16.15833,-5.141667,-0.04166667,1
20883,-0.09667969,0.9482421999999999,-0.30224609999999996,0.06103516,0.12207029999999999,0.0,107.5012,5.471191,91.08215,16.19167,-5.208333,-0.008333334000000001,1
21103,-0.09521484000000001,0.9487304999999999,-0.3032227,0.6713867,0.0,0.0,107.5616,5.465698,91.10413,21.35833,-26.29167,1.908333,1
21353,-0.09619141,0.9487304999999999,-0.3061523,0.06103516,0.0,0.0,107.5946,5.476685,91.08215,16.19167,-5.175,-0.075,1
21593,-0.09570313,0.9472655999999999,-0.3007813,-0.12207029999999999,0.0,0.0,107.5397,5.482178,91.07666,21.48333,-26.275,1.625,1
21833,-0.09472656,0.9453125,-0.3007813,-0.24414059999999999,-0.1831055,0.0,107.5342,5.482178,91.07666,16.2,-5.166667,-0.04166667,1
22123,-0.09667969,0.9492187999999999,-0.30273439999999996,0.0,-0.06103516,0.0,107.5397,5.482178,91.08215,21.45833,-26.25,1.716667,1
22413,-0.09667969,0.9477538999999999,-0.300293,0.24414059999999999,0.12207029999999999,0.0,107.5781,5.482178,91.09314,16.20833,-5.158333,0.01666667,1
22723,-0.09570313,0.9492187999999999,-0.30224609999999996,0.0,0.06103516,0.0,107.655,5.471191,91.14258,21.48333,-26.225,1.758333,1
23023,-0.09619141,0.9482421999999999,-0.30224609999999996,0.0,0.0,0.0,107.666,5.476685,91.14258,16.175,-5.166667,0.0,1
23323,-0.09619141,0.9467772999999999,-0.30126949999999997,-0.06103516,-0.06103516,0.0,107.6605,5.476685,91.14807,21.45833,-26.36667,1.758333,1
23633,-0.09619141,0.9477538999999999,-0.3037109,0.06103516,0.12207029999999999,0.0,107.6935,5.471191,91.17004,21.5,-26.35,2.041667,1
23903,-0.09570313,0.9482421999999999,-0.30224609999999996,-0.24414059999999999,-0.06103516,0.0,107.6715,5.476685,91.17554,16.16667,-5.141667,0.0,1
24183,-0.09667969,0.9477538999999999,-0.3056641,0.5493163999999999,0.1831055,0.0,107.71,5.471191,91.18652,16.19167,-5.183333,-0.05833333,1
24383,-0.09472656,0.9487304999999999,-0.30273439999999996,0.1831055,0.12207029999999999,0.0,107.7209,5.476685,91.18103,16.2,-5.175,-0.025,1
24573,-0.09667969,0.9482421999999999,-0.30224609999999996,-0.1831055,0.0,0.0,107.6935,5.476685,91.17554,16.175,-5.141667,-0.025,1
24783,-0.09570313,0.9477538999999999,-0.30175779999999996,-0.06103516,-0.06103516,0.0,107.666,5.482178,91.17004,16.16667,-5.158333,-0.025,1
24993,-0.09375000000000001,0.949707,-0.3032227,-0.1831055,0.0,0.0,107.6495,5.487671,91.15906,16.13333,-5.066667,0.01666667,1
25213,-0.09472656,0.9492187999999999,-0.300293,-0.06103516,0.06103516,0.0,107.666,5.487671,91.17004,21.45,-26.36667,1.558333,1
25453,-0.09619141,0.9467772999999999,-0.300293,0.12207029999999999,0.06103516,0.0,107.666,5.482178,91.18103,16.175,-5.175,0.0,1
25733,-0.09667969,0.9462891,-0.2978516,0.6713867,0.06103516,0.0,107.71,5.482178,91.19202,16.175,-5.166667,0.025,1
25943,-0.09570313,0.9477538999999999,-0.3032227,-0.24414059999999999,0.1831055,0.0,107.7704,5.471191,91.23596,21.48333,-26.21667,1.633333,1
26183,-0.09375000000000001,0.9487304999999999,-0.3032227,-0.06103516,0.0,0.0,107.7594,5.471191,91.24695,16.15,-5.158333,-0.01666667,1
26443,-0.09570313,0.9467772999999999,-0.300293,0.0,0.0,0.0,107.7594,5.476685,91.24146,21.46667,-26.19167,2.058333,1
26703,-0.09521484000000001,0.9477538999999999,-0.30273439999999996,-0.3051758,0.12207029999999999,0.0,107.7594,5.476685,91.25244,16.15833,-5.175,-0.05833333,1
26953,-0.08837891,0.9589844,-0.31005859999999996,-1.098633,-1.098633,0.0,107.666,5.487671,91.21948,21.50833,-26.425,1.625,1
27253,-0.09326172,0.9550780999999999,-0.32568359999999996,-0.9765625,0.1831055,-0.6103516,107.243,5.630493,90.87891,16.11667,-4.75,-0.075,1
27553,-0.10644529999999999,0.9345703,-0.2924805,-0.8544921999999999,-0.9155272999999999,-1.098633,107.243,5.734863,90.7251,21.70833,-26.29167,1.508333,1
27863,-0.11083979999999999,0.9433594,-0.3051758,4.211426,0.42724609999999996,0.9155272999999999,107.5891,5.751343,90.74707,21.68333,-26.06667,2.025,1
28133,-0.09423828000000001,0.9541016,-0.32568359999999996,-2.807617,-0.06103516,-0.7324219,107.4298,5.806274,90.51636,16.14167,-5.191667,-0.8250000000000001,1
28413,-0.08300781,0.9433594,-0.27783199999999997,5.493164,0.06103516,1.342773,106.7157,5.657959,90.57678,16.4,-5.633333,0.45,1
28613,-0.10498049999999999,0.9506836,-0.3085938,-2.258301,0.24414059999999999,-0.06103516,107.1332,5.581055,90.59875,16.05833,-5.033333,-0.44166669999999997,1
28803,-0.1025391,0.9516602,-0.2895508,1.220703,1.037598,0.4882813,106.7761,5.531616,90.60425,16.15833,-5.091667,0.1833333,1
29023,-0.09521484000000001,0.9511719,-0.3071289,0.3662109,-0.06103516,-0.06103516,106.908,5.509644,90.52734,16.20833,-5.133333,0.04166667,1
29223,-0.09667969,0.9448242,-0.2978516,-0.06103516,-0.06103516,-0.06103516,106.8805,5.493164,90.48889,16.19167,-5.15,0.06666667,1
29443,-0.09130859,0.9482421999999999,-0.2988281,0.1831055,-0.24414059999999999,0.0,106.875,5.443726,90.37354,21.36667,-26.1,1.8,1
29683,-0.10058589999999999,0.9492187999999999,-0.3115234,0.0,0.06103516,0.12207029999999999,106.9739,5.443726,90.3186,16.2,-5.175,-0.15,1
29963,-0.09765625,0.9467772999999999,-0.2993164,-0.12207029999999999,-0.06103516,-0.3662109,106.7871,5.487671,90.20874,16.15,-5.108333,0.008333334000000001,1
30183,-0.10107419999999999,0.9477538999999999,-0.30224609999999996,0.0,-0.12207029999999999,0.0,106.7267,5.570068,90.0824,16.15833,-5.083333,-0.008333334000000001,1
30443,-0.09912109000000001,0.9506836,-0.3056641,-0.06103516,0.1831055,-0.06103516,106.6718,5.575562,89.98901,16.18333,-5.141667,-0.25,1
30673,-0.09912109000000001,0.9492187999999999,-0.3051758,1.159668,0.7324219,0.42724609999999996,106.5509,5.52063,90.03296,21.58333,-26.14167,1.733333,1
30933,-0.09179688,0.9506836,-0.3110352,0.9155272999999999,0.12207029999999999,0.12207029999999999,106.7596,5.427246,89.98901,16.19167,-5.241667,-0.05,1
31183,-0.09619141,0.9472655999999999,-0.3041992,-0.3662109,0.12207029999999999,0.24414059999999999,106.6278,5.410767,89.9176,21.4,-26.19167,1.933333,1
31493,-0.09521484000000001,0.9487304999999999,-0.30175779999999996,0.42724609999999996,0.0,-0.1831055,106.5454,5.383301,89.83521,16.18333,-5.158333,0.06666667,1
31783,-0.09423828000000001,0.9477538999999999,-0.300293,0.12207029999999999,0.06103516,0.0,106.5674,5.388794,89.74182,21.44167,-26.03333,2.058333,1
32093,-0.09814453000000001,0.9492187999999999,-0.30273439999999996,0.0,0.06103516,0.0,106.6113,5.39978,89.71985,21.35,-26.11667,2.008333,1
32363,-0.09619141,0.9487304999999999,-0.30175779999999996,-0.1831055,0.06103516,0.0,106.6223,5.410767,89.71436,16.15833,-5.066667,-0.008333334000000001,1
32643,-0.09667969,0.9487304999999999,-0.2998047,0.12207029999999999,0.0,0.0,106.7102,5.421753,89.71985,16.20833,-5.158333,0.025,1
32863,-0.09960938,0.949707,-0.3071289,-0.06103516,0.24414059999999999,0.0,106.8146,5.432739,89.73083,21.53333,-26.31667,1.8666669999999999,1
33093,-0.105957,0.9414062999999999,-0.2871094,2.441406,1.525879,1.525879,106.8475,5.278931,89.84619,16.425,-5.675,0.375,1
34343,-0.08447266,0.9467772999999999,-0.2919922,0.4882813,0.7324219,-1.89209,106.5894,5.372314,89.28589,16.075,-4.95,0.49166669999999996,1
34563,-0.09960938,0.9599609,-0.34863279999999996,0.9155272999999999,1.403809,0.24414059999999999,107.0892,5.575562,89.25293,16.025,-4.95,-0.6666667,1
34773,-0.1025391,0.9350586,-0.27001949999999997,4.272461,0.42724609999999996,1.953125,106.6937,5.564575,89.24194,16.50833,-6.058333,-0.1,1
34993,-0.09375000000000001,0.9360352,-0.2734375,-2.258301,0.0,0.4882813,106.6498,5.306396,89.24194,16.19167,-5.191667,0.2583333,1
35213,-0.09814453000000001,0.9448242,-0.29443359999999996,0.0,-0.42724609999999996,-0.7324219,106.6113,5.39978,89.12109,21.44167,-26.1,1.9583329999999999,1
35453,-0.1000977,0.9458008,-0.3056641,0.0,-0.12207029999999999,-0.1831055,106.6388,5.515137,89.01672,16.15,-5.166667,-0.05833333,1
35693,-0.09716797,0.9453125,-0.29443359999999996,-0.3051758,0.0,0.3051758,106.474,5.493164,88.92883,21.55,-26.20833,1.683333,1
35943,-0.09667969,0.9467772999999999,-0.2924805,-0.4882813,0.1831055,0.12207029999999999,106.2982,5.421753,88.85742,16.15833,-5.0,0.075,1
36223,-0.09521484000000001,0.9472655999999999,-0.3007813,-0.5493163999999999,-0.1831055,-0.12207029999999999,106.3092,5.39978,88.78052,21.41667,-26.33333,1.858333,1
36513,-0.09863281,0.9467772999999999,-0.2978516,0.6103516,0.24414059999999999,0.0,106.3257,5.394287,88.70361,16.25833,-5.175,0.1083333,1
36823,-0.09619141,0.9482421999999999,-0.2988281,-0.3051758,-0.06103516,0.0,106.3916,5.383301,88.6322,21.375,-26.29167,1.8666669999999999,1
37123,-0.09765625,0.9487304999999999,-0.3007813,0.1831055,0.12207029999999999,0.0,106.4081,5.377808,88.5553,16.20833,-5.158333,0.05833333,1
37433,-0.09521484000000001,0.9477538999999999,-0.2998047,-0.4882813,0.0,0.0,106.3861,5.366821,88.48389,21.39167,-26.26667,1.9000000000000001,1
37733,-0.09765625,0.9501953,-0.2998047,0.0,0.0,0.0,106.4191,5.377808,88.42896,21.36667,-26.39167,1.933333,1
38043,-0.09521484000000001,0.949707,-0.30273439999999996,0.06103516,0.0,0.0,106.4905,5.388794,88.45642,16.2,-5.116667,-0.008333334000000001,1
38273,-0.09570313,0.9487304999999999,-0.300293,-0.3051758,0.0,0.0,106.5179,5.39978,88.46191,16.20833,-5.025,-0.2333333,1
38503,-0.11425779999999999,0.9550780999999999,-0.3139648,1.159668,0.12207029999999999,-0.4882813,106.4795,5.537109,88.42346,21.54167,-26.275,1.8,1
38733,-0.08935547,0.9516602,-0.2924805,-1.098633,-0.9155272999999999,-0.06103516,106.2598,5.559082,88.3136,16.08333,-4.725,0.1083333,1
39003,-0.1030273,0.9511719,-0.3051758,0.42724609999999996,-1.403809,-0.7324219,106.2927,5.674438,88.12683,16.44167,-4.95,0.2333333,1
39223,-0.1044922,0.9550780999999999,-0.315918,1.403809,-0.3051758,-0.6713867,106.6278,5.85022,88.0719,16.2,-5.108333,0.01666667,1
39443,-0.1103516,0.9418945,-0.2993164,0.4882813,0.1831055,0.06103516,106.6827,6.075439,87.9895,21.975,-25.925,1.7,1
39683,-0.1040039,0.9453125,-0.2998047,-0.5493163999999999,-0.12207029999999999,0.12207029999999999,106.6388,5.976563,87.98401,16.16667,-5.183333,0.04166667,1
39923,-0.1025391,0.9462891,-0.2978516,0.0,-0.1831055,-0.3051758,106.6663,5.883179,87.96753,21.78333,-26.05833,1.775,1
40173,-0.1044922,0.9487304999999999,-0.3081055,0.1831055,0.1831055,-0.42724609999999996,106.7157,5.93811,87.9071,16.13333,-5.141667,-0.01666667,1
40453,-0.1113281,0.9462891,-0.31005859999999996,0.6103516,-0.24414059999999999,-0.3051758,106.875,6.05896,87.85767,21.91667,-25.58333,2.05,1
40753,-0.11279299999999999,0.9448242,-0.3115234,-0.06103516,0.6713867,0.06103516,107.0178,6.015015,87.93457,16.35833,-5.358333,-0.1166667,1
41053,-0.10839839999999999,0.9521484,-0.2993164,-1.403809,2.075195,1.403809,106.5344,5.866699,87.8302,21.73333,-26.04167,1.925,1
41353,-0.09033203000000001,0.9511719,-0.2900391,2.563477,0.7324219,1.464844,106.0126,5.372314,87.92908,16.33333,-5.125,0.1333333,1
41683,-0.08691406,0.9501953,-0.29345699999999997,1.403809,-0.06103516,-0.12207029999999999,106.3422,5.163574,87.82471,16.24167,-5.216667,0.15,1
41963,-0.09130859,0.9492187999999999,-0.29394529999999996,-1.220703,-0.6713867,0.1831055,106.3312,5.092163,87.81372,21.225,-26.44167,1.8,1
42273,-0.09326172,0.9506836,-0.296875,0.0,-0.42724609999999996,-0.6713867,106.3367,5.147095,87.7533,16.20833,-5.058333,0.1166667,1
42513,-0.08984375,0.9541016,-0.3046875,-0.6713867,-0.06103516,0.12207029999999999,106.3641,5.141602,87.65991,16.15,-5.0,-0.008333334000000001,1
42733,-0.09423828000000001,0.9506836,-0.2963867,0.6713867,-0.12207029999999999,-0.06103516,106.3202,5.180054,87.59399,21.23333,-26.59167,2.083333,1
42973,-0.09179688,0.9501953,-0.2954102,-0.3662109,0.3051758,0.06103516,106.3147,5.174561,87.52808,16.23333,-5.041667,-0.008333334000000001,1
43233,-0.09375000000000001,0.9506836,-0.2973633,0.7324219,-0.12207029999999999,-0.1831055,106.3971,5.185547,87.53357,16.225,-5.233333,0.06666667,1
43443,-0.09179688,0.9501953,-0.2963867,-0.6713867,0.06103516,0.0,106.4905,5.202026,87.52258,16.225,-5.091667,0.05,1
43663,-0.09423828000000001,0.9487304999999999,-0.2958984,-0.06103516,-0.12207029999999999,-0.06103516,106.5399,5.240479,87.5116,21.33333,-26.45833,1.616667,1
43913,-0.09033203000000001,0.9501953,-0.2919922,-0.4882813,-0.12207029999999999,0.0,106.496,5.240479,87.48962,16.23333,-5.108333,0.01666667,1
44163,-0.09375000000000001,0.9526367,-0.30273439999999996,0.3051758,0.1831055,0.0,106.6718,5.267944,87.52258,16.21667,-5.05,0.01666667,1
44483,-0.09228516,0.949707,-0.300293,0.0,0.06103516,0.0,106.7871,5.267944,87.56653,21.14167,-26.50833,2.0,1
44760,-0.09179688,0.9482421999999999,-0.2973633,0.24414059999999999,0.0,0.0,106.8915,5.2624509999999995,87.60498,21.3,-26.29167,1.975,1
45033,-0.09326172,0.9492187999999999,-0.300293,-0.42724609999999996,0.06103516,0.0,106.9354,5.2624509999999995,87.61597,16.21667,-5.1,0.01666667,1
45283,-0.09228516,0.9506836,-0.30175779999999996,0.9765625,0.1831055,0.0,107.0068,5.267944,87.62695,21.31667,-26.5,1.941667,1
45593,-0.09277344,0.9492187999999999,-0.2993164,0.12207029999999999,-0.12207029999999999,0.0,107.0398,5.273438,87.62695,16.2,-5.091667,0.04166667,1
45913,-0.09277344,0.9472655999999999,-0.29394529999999996,-0.24414059999999999,0.0,0.0,107.1002,5.300903,87.64343,16.2,-5.1,0.06666667,1
46193,-0.09326172,0.9501953,-0.3007813,0.0,0.0,0.0,107.1442,5.29541,87.65991,21.3,-26.31667,1.983333,1
46463,-0.09179688,0.9487304999999999,-0.2973633,0.0,-0.24414059999999999,0.0,107.1387,5.300903,87.64893000000001,16.15833,-5.116667,-0.05833333,1
46743,-0.09423828000000001,0.9482421999999999,-0.2954102,0.0,0.0,-0.3662109,107.0453,5.306396,87.59949,16.05833,-4.8,0.36666669999999996,1
46963,-0.09716797,0.9541016,-0.3266602,-7.202148,0.42724609999999996,-0.5493163999999999,107.3804,5.339355,87.52808,21.46667,-26.29167,2.041667,1
47193,-0.09130859,0.949707,-0.3046875,2.319336,0.5493163999999999,0.3662109,106.853,5.289917,87.43469,16.25,-5.158333,0.008333334000000001,1
47463,-0.09423828000000001,0.9492187999999999,-0.2998047,-0.793457,-0.06103516,0.0,106.8915,5.267944,87.40723,16.15833,-4.966667,0.05833333,1
47673,-0.09375000000000001,0.9506836,-0.3007813,0.9765625,0.24414059999999999,0.0,106.875,5.240479,87.37427,16.21667,-5.125,-0.008333334000000001,1
47893,-0.09277344,0.9501953,-0.2998047,0.0,0.12207029999999999,0.0,106.8915,5.213013,87.31384,21.28333,-26.34167,2.05,1
48143,-0.09179688,0.9511719,-0.30273439999999996,-0.4882813,0.06103516,0.0,106.853,5.202026,87.2699,16.2,-5.066667,0.075,1
48383,-0.09228516,0.949707,-0.2998047,-0.12207029999999999,0.0,0.0,106.7926,5.185547,87.18201,21.11667,-26.43333,1.883333,1
48623,-0.09326172,0.9487304999999999,-0.2973633,0.24414059999999999,-0.06103516,0.0,106.8256,5.19104,87.17102,16.19167,-5.083333,0.08333334,1
48893,-0.09423828000000001,0.9501953,-0.30175779999999996,-0.06103516,0.0,0.0,106.9189,5.202026,87.16553,16.175,-5.091667,0.03333333,1
49123,-0.09179688,0.9492187999999999,-0.2983398,-0.3051758,0.0,0.0,106.9244,5.213013,87.17102,21.25,-26.36667,1.808333,1
49413,-0.09130859,0.9482421999999999,-0.2978516,-0.12207029999999999,-0.1831055,0.0,106.9464,5.223999,87.17651,16.23333,-5.15,-0.01666667,1
50693,-0.09375000000000001,0.9482421999999999,-0.2983398,-0.3051758,0.0,0.0,107.1936,5.240479,87.22595,16.19167,-5.1,0.008333334000000001,1
50923,-0.09179688,0.9492187999999999,-0.2993164,0.1831055,0.06103516,0.0,107.2321,5.245972,87.23145,21.325,-26.49167,1.9916669999999999,1
51223,-0.09228516,0.949707,-0.300293,0.0,0.0,0.0,107.254,5.251465,87.23145,16.19167,-5.116667,0.01666667,1
51563,-0.09277344,0.949707,-0.300293,0.1831055,0.0,0.0,107.276,5.2624509999999995,87.24243,16.19167,-5.116667,0.04166667,1
51833,-0.09326172,0.9487304999999999,-0.300293,0.0,0.0,0.0,107.3364,5.267944,87.24792,21.30833,-26.40833,2.0,1
52143,-0.09277344,0.9477538999999999,-0.2978516,-0.12207029999999999,0.0,0.0,107.3035,5.273438,87.23694,16.2,-5.108333,-0.01666667,1
52373,-0.09326172,0.9506836,-0.2993164,0.0,0.12207029999999999,0.0,107.3145,5.284424,87.23145,16.175,-5.058333,0.0,1
52603,-0.09326172,0.9501953,-0.296875,-0.3662109,0.0,0.0,107.298,5.289917,87.23145,21.31667,-26.46667,1.841667,1
52843,-0.09375000000000001,0.9487304999999999,-0.2973633,0.3662109,0.12207029999999999,0.0,107.3035,5.29541,87.23145,16.2,-5.125,0.008333334000000001,1
53103,-0.09228516,0.9511719,-0.2993164,0.42724609999999996,0.24414059999999999,0.0,107.3914,5.29541,87.25342,16.16667,-5.083333,0.03333333,1
53313,-0.09375000000000001,0.9487304999999999,-0.30224609999999996,0.12207029999999999,0.24414059999999999,0.0,107.4518,5.289917,87.28638,16.18333,-5.1,0.01666667,1
53533,-0.09277344,0.949707,-0.30175779999999996,-0.06103516,0.0,0.0,107.4683,5.289917,87.29736,21.275,-26.45,2.008333,1
53783,-0.09472656,0.949707,-0.3007813,-0.3662109,0.1831055,0.0,107.4847,5.289917,87.30835,16.18333,-5.091667,0.09166667,1
54023,-0.09375000000000001,0.9492187999999999,-0.3007813,0.06103516,0.0,0.0,107.5342,5.289917,87.33032,21.275,-26.4,2.208333,1
54263,-0.09375000000000001,0.949707,-0.2993164,0.24414059999999999,0.0,0.0,107.5177,5.29541,87.33032,16.18333,-5.158333,0.01666667,1
54553,-0.09375000000000001,0.949707,-0.2993164,0.42724609999999996,0.06103516,0.0,107.5452,5.29541,87.34131000000001,21.35833,-26.45833,1.9583329999999999,1
54853,-0.09326172,0.9492187999999999,-0.3007813,-0.42724609999999996,0.0,0.0,107.5507,5.300903,87.3468,16.20833,-5.125,-0.03333333,1
55153,-0.09179688,0.9477538999999999,-0.2958984,-0.12207029999999999,-0.12207029999999999,0.0,107.5067,5.306396,87.33582,21.40833,-26.425,2.0,1
55453,-0.09423828000000001,0.9477538999999999,-0.296875,0.0,-0.12207029999999999,0.0,107.4683,5.317383,87.33032,16.2,-5.083333,-0.01666667,1
55783,-0.09179688,0.949707,-0.2988281,0.3051758,0.0,0.0,107.4792,5.322876,87.31934,16.15833,-5.05,0.075,1
56063,-0.09375000000000001,0.9482421999999999,-0.2988281,0.0,0.12207029999999999,0.0,107.5507,5.317383,87.3468,21.29167,-26.35,1.8666669999999999,1
56333,-0.09326172,0.9477538999999999,-0.2998047,0.5493163999999999,-0.06103516,0.0,107.6111,5.317383,87.36877,16.225,-5.183333,0.0,1
56613,-0.09375000000000001,0.9458008,-0.2988281,0.1831055,0.12207029999999999,0.0,107.6166,5.317383,87.38525,16.225,-5.216667,0.0,1
56813,-0.09326172,0.9472655999999999,-0.2988281,-0.3051758,0.0,0.0,107.6166,5.317383,87.40173,16.175,-5.1,-0.01666667,1
57003,-0.09277344,0.9487304999999999,-0.296875,0.6103516,0.0,0.0,107.6331,5.317383,87.39624,16.18333,-5.158333,0.0,1
57213,-0.09375000000000001,0.9462891,-0.2963867,-0.24414059999999999,0.0,0.0,107.6276,5.317383,87.40723,16.225,-5.166667,0.09166667,1
57423,-0.09375000000000001,0.9501953,-0.3041992,0.0,-0.12207029999999999,0.0,107.677,5.317383,87.41272,16.20833,-5.158333,-0.03333333,1
57643,-0.09375000000000001,0.9472655999999999,-0.2983398,0.0,0.06103516,0.0,107.6331,5.328369,87.39624,21.23333,-26.40833,2.0,1
57873,-0.09521484000000001,0.9462891,-0.2954102,-0.12207029999999999,0.12207029999999999,0.0,107.6166,5.328369,87.41272,16.21667,-5.158333,0.0,1
58183,-0.09228516,0.9492187999999999,-0.300293,0.0,0.0,0.0,107.6001,5.333862,87.41821,21.20833,-26.40833,1.783333,1
58440,-0.09375000000000001,0.9467772999999999,-0.2958984,0.06103516,0.0,0.0,107.5781,5.333862,87.41821,21.40833,-26.48333,1.9583329999999999,1
58733,-0.09423828000000001,0.9477538999999999,-0.2983398,0.1831055,0.0,0.0,107.5946,5.333862,87.42371,16.225,-5.125,0.05,1
58973,-0.09521484000000001,0.9516602,-0.3037109,0.0,0.3051758,0.0,107.6276,5.339355,87.42371,16.18333,-5.083333,-0.008333334000000001,1
59193,-0.09228516,0.949707,-0.30273439999999996,0.0,0.0,0.0,107.6276,5.339355,87.45117,16.2,-5.15,-0.025,1
59473,-0.09521484000000001,0.9477538999999999,-0.2978516,0.0,0.06103516,0.0,107.5616,5.344849,87.44019,21.26667,-26.35,2.025,1
59733,-0.09423828000000001,0.9492187999999999,-0.2978516,0.4882813,0.0,0.0,107.5671,5.350342,87.4292,16.2,-5.125,-0.008333334000000001,1
60003,-0.09277344,0.9492187999999999,-0.3007813,0.0,0.06103516,0.0,107.5726,5.355835,87.43469,16.33333,-5.166667,-0.08333334,1
60293,-0.08154297,0.9985352,-0.3208008,-18.31055,-1.403809,2.319336,105.9851,4.9493409999999995,87.08862,21.05833,-27.61667,0.6000000000000001,1
60563,-0.078125,1.060059,-0.2124023,-50.78125,-6.103516,8.972168,98.56384,3.872681,86.0614,20.85833,-4.5,-13.49167,1
60813,-0.04980469,0.9506836,0.4179688,-84.41162,4.760742,1.6479489999999999,68.5437,2.131348,85.95154,15.525,7.308333,-8.658334,1
61143,-0.08300781,0.6850586,0.4550781,1.403809,16.78467,17.15088,56.49719,0.2636719,89.60449,14.26667,7.708333,4.091667,1
61393,-0.009277344,0.7529296999999999,0.3979492,56.09131,38.69629,14.16016,63.9624,-1.142578,99.23401,13.38333,-37.95,-23.7,1
61623,-0.04833984,1.052734,0.31738279999999996,12.57324,29.1748,6.408691,70.99365,0.5603026999999999,105.271,15.96667,3.15,0.65,1
61873,-0.06787109,1.084961,0.06103516,11.84082,93.93311,12.69531,73.07007,4.438477,126.134,6.591667,-38.84167,-6.016667,1
62113,-0.4599609,1.22998,0.2045898,0.7324219,104.4922,20.38574,74.61914,3.208008,144.9976,15.39167,3.508333,-0.85,1
62373,-0.1958008,0.859375,0.1328125,-1.708984,58.22754,30.27344,74.53674,3.092651,157.9724,13.3,0.625,-2.15,1
62753,0.05712891,1.103516,0.2797852,10.62012,3.90625,-8.178711,76.36047,3.652954,160.0873,14.4,6.1,0.7666666999999999,1
62993,-0.21777339999999998,0.9882812999999999,0.020996090000000002,-16.47949,36.8042,8.605957,76.48132,2.400513,166.9867,14.95833,4.008333,0.9583332999999999,1
63203,-0.1196289,1.279297,0.3383789,5.7983400000000005,44.6167,10.00977,76.5802,4.54834,176.1273,13.1,6.708333,-0.85,1
63423,-0.06835938,0.7495117,0.1875,-12.87842,-12.3291,-9.643555,77.70081,2.460938,-174.3915,16.075,0.225,-2.741667,1
63703,0.04833984,1.245117,0.5258788999999999,21.11816,-13.12256,-41.3208,77.19543,0.2197266,178.5608,-20.39167,-42.26667,-1.966667,1
63963,-0.01269531,0.7065429999999999,0.21728519999999998,-7.69043,4.638672,22.88818,77.92053,3.356323,174.2377,16.81667,1.766667,-2.475,1
64233,-0.07763672,1.224609,0.1176758,3.845215,24.59717,1.708984,75.70129,3.7133789999999998,-179.4397,14.575,7.1,-1.758333,1
64513,-0.1176758,0.8432617,0.1728516,4.089355,5.126953,-10.98633,76.06934,0.9722900000000001,-171.0187,-25.6,-43.53333,-5.716667,1
64813,-0.006835938000000001,1.344727,0.4165039,25.39063,-21.66748,-41.87012,77.50305,-0.2581787,-174.9463,-22.98333,-43.625,-2.266667,1
65093,0.02587891,0.6738280999999999,0.2353516,-8.483887,0.6713867,25.63477,76.87683,2.861938,179.6484,15.85,1.466667,-1.683333,1
65373,-0.015625,1.239746,0.06201172,4.333496,27.89307,-2.807617,75.39368,4.01001,-177.5281,14.85833,7.65,-1.108333,1
65603,-0.4287109,1.162598,0.2197266,-5.981445,14.70947,2.807617,76.8219,-0.1043701,-171.3428,14.68333,3.008333,-0.03333333,1
65793,-0.078125,0.8881836,0.09521484000000001,-11.2915,-20.62988,14.5874,75.49255,1.312866,-174.5343,15.9,2.725,0.1,1
66994,-0.0625,0.9951171999999999,0.03417969,-9.033203,-8.056641,17.45605,74.53125,-1.120605,-175.7648,16.425,4.766667,0.2666667,1
67203,-0.09423828000000001,1.192871,0.37304689999999996,22.15576,-23.86475,-33.56934,76.76147,-1.411743,-179.9121,19.25,7.35,0.975,1
67413,0.017089840000000002,0.7456054999999999,0.23291019999999998,-2.807617,1.281738,24.16992,77.27234,2.098389,175.0726,15.45833,1.691667,-2.058333,1
67633,-0.230957,1.129395,0.08740234,-2.01416,27.03857,9.033203,75.89355,2.746582,179.3463,-18.80833,-47.21667,1.233333,1
67883,-0.1298828,0.953125,0.3154297,-7.385254,29.29688,34.729,75.42114,-1.955566,-174.8969,14.01667,3.225,0.85,1
68123,-0.07519531,0.8491211,0.1123047,-4.577637,-11.77979,3.967285,74.91028,-0.604248,-175.3912,13.75833,0.9,-0.2083333,1
68333,-0.1621094,1.206543,0.1640625,19.65332,-25.75684,-31.43311,75.15747,-2.883911,-178.8245,13.10833,6.541667,-3.0,1
68553,0.005371094000000001,0.9501953,0.13476559999999999,-2.624512,3.90625,12.08496,77.95898,0.7745361,175.6,15.25833,0.008333334000000001,-2.758333,1
68863,-0.022460940000000002,1.243652,0.33398439999999996,10.0708,-0.3662109,23.49854,75.75073,1.7028809999999999,-179.9396,-19.13333,-45.075,1.983333,1
69133,-0.009765625,0.8134766,0.1308594,-5.615234,-19.53125,-2.746582,75.23438,-0.7855225,-176.4569,-21.55833,-44.9,0.4,1
69423,0.24462889999999998,1.029297,0.2988281,14.95361,-7.141113,-2.685547,73.99292,-4.262695,-178.764,21.55833,7.691667,2.908333,1
69673,0.02929688,0.7915038999999999,0.18164059999999999,9.338379,11.65771,25.26855,76.95374,0.6976317999999999,175.4572,-16.775,-43.925,2.133333,1
69953,0.05712891,1.249023,0.10644529999999999,8.056641,14.4043,15.50293,75.16846,1.955566,-178.7146,-18.05833,-44.2,0.3083333,1
70253,-0.2265625,1.14502,0.2182617,-3.417969,2.01416,1.6479489999999999,76.06384,-2.444458,-172.3096,15.00833,2.85,-0.4,1
70543,-0.2680664,1.142578,0.2104492,15.99121,-30.27344,-26.12305,75.73425,-2.949829,-177.0447,-21.51667,-43.375,0.6583333,1
70793,0.1289063,0.8803711,0.2392578,-9.94873,4.821777,20.93506,77.1405,2.142334,177.8851,15.475,1.95,-0.425,1
71043,0.02001953,0.921875,0.004394531,-21.24023,20.56885,-15.25879,75.12451,0.8074950999999999,179.588,16.825,2.491667,2.433333,1
71263,-0.05517578,0.9853516,0.4155273,-17.76123,40.77148,51.33057,75.50354,-2.06543,-171.6614,-25.175,-44.41667,-2.658333,1
71533,-0.04443359,0.7841796999999999,0.11669919999999999,-13.73291,-18.00537,2.685547,73.99292,-0.8569336,-171.6064,14.55833,-0.08333334,-1.116667,1
71743,0.09765625,0.9697266,0.4550781,-1.525879,-18.12744,-53.34473,75.6958,-1.131592,-177.8961,-20.16667,-45.56667,-1.1,1
71983,0.109375,0.7817383,0.1948242,9.216309,13.42773,31.43311,75.66833,-0.27465819999999996,179.9945,-19.9,-46.18333,-1.2,1
72233,-0.04345703,1.03125,0.2612305,3.723145,32.53174,-4.821777,73.26782,1.538086,-175.2429,20.56667,5.058333,2.425,1
72473,0.1953125,0.8657227,0.4306641,-8.300781,59.32617,53.22266,74.67957,-2.477417,-168.8544,14.16667,4.025,0.35000000000000003,1
72683,-0.1074219,0.8159179999999999,-0.009765625,-11.16943,-22.82715,15.50293,73.55347,-1.933594,-167.959,-27.63333,-45.85,-3.05,1
72933,0.008300781,1.097168,0.5058594,3.967285,-3.356934,-48.21777,76.87683,-0.4779053,-173.2324,20.61667,5.066667,0.6166667,1
73173,-0.04296875,0.8666992,0.11669919999999999,-15.01465,13.06152,-4.699707,75.39917,0.5218505999999999,-174.7046,15.18333,2.3,-1.433333,1
73483,-0.1420898,0.9687500000000001,0.48193359999999996,8.361816,11.04736,49.62158,75.22339,0.03295898,-168.2336,-26.8,-45.56667,-1.4,1
73783,-0.03466797,0.921875,0.00390625,-11.1084,-22.76611,8.666992,74.80591,-0.6811522999999999,-168.2996,-25.46667,-45.58333,-1.533333,1
74053,-0.18945309999999999,1.205566,0.26318359999999996,20.81299,-39.97803,-27.40479,76.14624,-1.73584,-173.8202,14.875,8.383333,-1.575,1
74303,-0.009277344,0.8535155999999999,0.1333008,-17.15088,1.953125,11.77979,77.0636,0.9173583999999999,179.599,-16.475,-45.65,1.225,1
74613,-0.024902340000000002,1.175293,0.4458008,3.78418,-2.746582,41.62598,75.42114,1.560059,-174.7375,22.88333,4.55,1.591667,1
74943,-0.04443359,0.7939453,0.11279299999999999,-6.225586,-22.3999,13.18359,74.67407,-0.5218505999999999,-174.1058,14.80833,1.175,-0.125,1
75143,-0.15136719999999998,1.29834,-0.005371094000000001,29.84619,-28.9917,-19.34814,74.14124,-3.927612,-177.6599,13.93333,6.025,-0.8,1
75373,0.06347656,0.8168945,0.1914063,-0.8544921999999999,12.39014,18.49365,75.3772,-0.2087402,179.0991,-16.79167,-45.36666,-0.1,1
75633,-0.09277344,0.9545897999999999,0.25,4.516602,30.57861,-7.69043,72.35596,1.208496,-175.6989,20.85,5.608333,2.858333,1
75893,0.22558589999999998,0.9960937999999999,0.4487305,-3.90625,47.11914,46.81396,74.20715,-2.213745,-170.332,13.79167,4.191667,0.35000000000000003,1
76093,-0.12060549999999999,0.7978516,-0.01220703,-15.38086,-19.89746,18.18848,73.27881000000001,-1.7028809999999999,-169.2993,-24.38333,-44.89167,-2.85,1
76333,0.1342773,1.033203,0.5405272999999999,2.685547,-7.080078,-43.27393,75.54749,-1.3348389999999999,-174.5453,23.21667,5.283333,1.475,1
76583,0.02734375,0.765625,0.22216799999999998,-7.69043,4.516602,11.84082,76.54175,0.9558105,-177.7588,14.34167,1.858333,-2.708333,1
76793,-0.08447266,1.170898,0.06933594,-2.319336,34.05762,0.6713867,72.79541,2.867432,-171.3593,-19.80833,-46.23333,-3.091667,1
77083,-0.484375,1.049316,0.246582,-17.21191,6.164551,-13.97705,74.31702,-1.829224,-166.0968,14.34167,2.816667,-0.075,1
77323,-0.1303711,1.047852,0.175293,3.540039,-40.64941,12.146,72.63062,-3.488159,-172.2217,-22.975,-45.40833,-1.8333329999999999,1
77593,0.03613281,0.8188477,0.2587891,0.0,8.483887,16.05225,76.08582,1.8951419999999999,-179.61,-16.19167,-45.96667,-0.2833333,1
77883,0.01953125,0.8569336,-0.0009765625,-12.08496,30.45654,-11.90186,74.09729,1.461182,-176.3635,18.14167,1.875,0.8833333,1
78133,-0.144043,1.294922,0.2719727,8.117676,40.71045,15.86914,74.93774,-1.642456,-167.0251,-23.94167,-45.96667,-2.958333,1
78413,-0.159668,0.8471679999999999,0.06494141,-12.57324,-31.12793,15.07568,71.49353,-2.477417,-171.1011,-23.41667,-46.61666,-4.358333,1
78713,0.1474609,0.7822266,0.4448242,-0.06103516,-11.77979,-52.85645,74.56421,-0.08789063,-176.2701,22.83333,4.833333,0.4666667,1
78953,-0.02392578,0.8071288999999999,0.05322266,-16.96777,18.43262,-6.530762,73.97644,-0.09887695,-176.8085,16.25,4.208333,0.1833333,1
79263,0.1674805,0.8930663999999999,0.48144529999999996,-14.52637,59.2041,42.23633,73.4436,-2.026978,-168.4094,12.95,4.35,0.7083332999999999,1
79503,-0.04980469,0.7026367,0.15039059999999999,-14.5874,-2.441406,5.371094,73.58643000000001,-0.5273438,-165.6299,13.85833,-0.375,-0.9,1
79723,0.03759766,1.0,0.49658199999999997,-3.234863,7.629395,-49.1333,74.76746,-0.9448242,-169.3323,-21.11667,-45.6,-1.45,1
79953,0.04345703,0.7836913999999999,0.1948242,4.516602,-6.164551,15.44189,75.26184,1.691895,-172.9248,14.775,1.35,-1.491667,1
80203,0.1157227,1.238281,0.0546875,4.455566,20.56885,19.71436,73.47656,2.752075,-168.4698,-19.95833,-45.39167,-2.116667,1
80443,-0.300293,1.205078,0.20507809999999999,-6.835938,18.18848,-1.8310549999999999,74.53125,-2.752075,-162.4329,14.21667,2.433333,0.9416667,1
80723,-0.078125,0.8852538999999999,0.04003906,-12.3291,-15.01465,15.13672,73.7677,-0.7470703,-163.9215,17.53333,3.133333,0.7833333,1
80953,-0.1767578,0.9794921999999999,0.4614258,-10.86426,-41.19873,-54.38232,75.82214,2.158813,-171.7657,-16.55,-44.01667,-0.6916667,1
81210,0.01220703,0.8813477,-0.008300781,-12.51221,18.85986,-10.62012,73.94897,1.3623049999999999,-173.9246,-16.91667,-44.675,-2.0,1
81513,-0.26318359999999996,1.252441,0.4946289,17.33398,-5.371094,44.7998,74.89929,1.658936,-169.2169,19.06667,7.033333,-1.066667,1
81753,-0.022460940000000002,0.7568359,0.1323242,-6.835938,-20.20264,4.760742,74.69055,-0.5383300999999999,-166.6406,14.375,0.40833329999999995,-0.5666667,1
83023,-0.08935547,0.9975586,0.2841797,-5.981445,-27.64893,9.338379,71.42761,-3.652954,-166.9592,-23.18333,-43.76667,-4.016667,1
83313,-0.1030273,1.096191,0.4755859,5.737305,-33.44727,-38.26904,74.78943,1.741333,-172.1393,13.81667,3.908333,-0.9583332999999999,1
83563,0.04833984,0.7949219,0.0034179690000000003,-3.417969,25.63477,-17.57813,73.54797,2.15332,-171.8756,-16.81667,-44.94167,-3.075,1
83873,-0.2158203,1.280762,0.2275391,0.793457,21.85059,13.18359,74.5752,-2.966309,-164.7729,13.45,2.616667,1.208333,1
84173,-0.2524414,0.9526367,0.17041019999999998,-1.403809,-32.4707,22.33887,72.71301,-4.026489,-168.6237,-23.05833,-43.70833,-2.95,1
84513,0.09082031,0.9287109,0.26318359999999996,-5.310059,5.432129,14.16016,75.34424,2.905884,-174.9078,14.175,2.716667,-0.1916667,1
84713,-0.020996090000000002,0.8789062999999999,-0.009765625,-15.31982,17.45605,-9.94873,73.53149,1.318359,-172.6831,16.75,3.958333,1.133333,1
84933,-0.1323242,1.234375,0.5693359,9.887695,-12.20703,47.24121,74.34998,1.40625,-168.7994,22.15,5.191667,0.725,1
85143,-0.16650389999999998,0.7480469,0.1811523,10.98633,2.868652,-19.28711,73.80066,-1.027222,-162.8778,13.84167,2.025,-1.008333,1
85363,-0.3227539,1.307617,-0.05761719,20.08057,-27.03857,-21.30127,72.32849,-2.796021,-165.2289,-22.44167,-43.71667,-2.975,1
85593,0.15869139999999998,1.265137,0.284668,3.4790039999999998,-33.20313,-16.78467,73.88855,2.69165,-173.1335,13.83333,3.333333,0.7666666999999999,1
85843,0.03662109,0.9785155999999999,0.2504883,5.92041,30.57861,-13.5498,71.94946,2.6202389999999998,-171.5845,-15.53333,-44.8,-3.408333,1
86093,0.06347656,0.8310546999999999,0.4326172,-16.17432,29.84619,42.90771,73.29529,0.054931640000000004,-167.9315,16.61667,4.783333,-1.883333,1
86363,-0.009277344,0.8310546999999999,0.1723633,-0.5493163999999999,-23.25439,-13.00049,73.01514,0.1318359,-166.6132,15.38333,0.9333332999999999,-1.3,1
86593,-0.08154297,1.307129,0.390625,10.13184,-32.95898,-40.83252,73.98743,-1.6479489999999999,-173.0621,-14.88333,-43.55833,-2.175,1
86863,-0.03369141,0.7583008,0.1464844,-2.197266,3.601074,8.239746,74.67957,1.268921,-178.1049,-12.35,-43.625,-2.283333,1
87153,-0.1357422,1.134766,0.11083979999999999,12.75635,17.45605,5.615234,73.05908,3.510132,-175.199,20.86667,8.65,-0.09166667,1
87393,-0.1479492,0.7714844,0.21777339999999998,3.4790039999999998,-23.4375,-19.65332,73.50403,-0.5108642999999999,-171.98,13.36667,2.025,-0.04166667,1
87673,-0.02441406,1.432129,0.17480469999999998,34.85107,-29.29688,-40.34424,74.34998,-2.774048,-179.9506,-13.03333,-43.36666,-1.533333,1
87943,0.060546880000000004,0.9438477,0.2597656,-6.225586,0.06103516,13.3667,75.27832,3.22998,174.9353,13.03333,3.333333,1.325,1
88223,-0.1489258,0.9550780999999999,0.2602539,0.7324219,19.89746,-3.112793,72.72949,3.004761,177.5885,23.90833,6.658333,3.291667,1
88493,-0.2319336,0.7348633,0.25439449999999997,-3.90625,1.6479489999999999,-21.3623,74.10278,-0.9393311,-175.4132,-13.78333,-43.69167,-2.833333,1
88803,0.009277344,1.216309,0.1289063,31.18896,-17.82227,-11.84082,74.03137,-2.828979,179.978,16.8,8.275,-0.3833333,1
89043,-0.005859375,1.215332,0.3901367,-4.150391,-30.27344,-38.26904,75.94299,3.312378,173.5016,13.56667,3.458333,0.6833332999999999,1
89253,-0.020996090000000002,0.8398437999999999,0.08740234,-6.469727,7.995605,-5.737305,75.40466,1.757813,172.337,14.55833,2.766667,-0.925,1
89473,-0.05566406,1.07373,0.5175780999999999,4.150391,-10.49805,28.68652,75.4541,-0.2801514,175.1605,-9.191667,-43.25,-1.966667,1
89733,-0.1889648,0.855957,0.20947269999999998,9.338379,-5.126953,-15.86914,74.8938,-0.8129883,177.616,13.35,2.233333,0.3416667,1
89983,-0.2602539,0.8901367,0.15039059999999999,3.90625,-37.47559,24.23096,73.96545,-2.125854,174.1718,23.05,-2.95,1.766667,1
90203,0.2744141,1.205078,0.2773438,-6.347656,-41.25977,6.591797,76.6626,2.9882809999999997,162.7954,-0.31666669999999997,-41.76667,-2.5,1
90443,0.05615234,0.8671875,0.0078125,-12.3291,18.79883,-5.981445,75.4541,1.450195,161.8945,16.48333,3.408333,0.9833333999999999,1
90683,-0.2617188,1.318848,0.4306641,27.16064,-20.99609,41.87012,76.1792,2.444458,165.8826,17.93333,7.191667,-1.258333,1
90913,-0.001953125,0.7167969,0.1191406,-0.5493163999999999,-22.2168,-0.12207029999999999,76.14624,-0.1153564,165.8661,12.58333,1.05,-0.9500000000000001,1
91213,0.09423828000000001,1.054199,0.44970699999999997,0.7324219,5.981445,-46.26465,78.20068,0.07141113,159.4116,1.15,-40.61666,-2.216667,1
91513,-0.0078125,0.8579102,0.1259766,-7.385254,0.12207029999999999,-1.098633,76.35498,1.779785,155.6213,14.95833,2.6,-0.2916667,1
91813,-0.04638672,0.9492187999999999,0.41894529999999996,-1.403809,3.356934,27.83203,75.94849,0.6866455,159.1095,-0.7833333,-41.825,-3.758333,1
92113,-0.1777344,0.871582,0.2041016,12.93945,2.502441,-12.146,75.96497,-0.2087402,163.9325,13.84167,1.666667,-0.5083333,1
92373,-0.1572266,1.433594,0.128418,26.00098,-21.11816,-38.94043,76.79443,-0.8843994,160.4828,15.18333,5.591667,-1.375,1
92633,0.0234375,0.8139647999999999,0.1777344,5.310059,-14.46533,5.92041,76.92078,3.57605,153.3582,4.6,-39.99166,-4.716667,1
92973,-0.2436523,1.324707,0.34863279999999996,34.42383,-8.361816,28.38135,77.56897,4.5593259999999995,154.8578,16.38333,7.816667,-3.15,1
93183,-0.23291019999999998,0.8310546999999999,0.2314453,-13.79395,-23.68164,-27.52686,76.83289,0.45593259999999997,155.1709,13.866670000000001,2.675,-0.8250000000000001,1
93393,-0.04296875,0.8974609,0.03564453,-10.43701,-23.4375,16.54053,75.03113,0.9118651999999999,148.7823,18.29167,4.191667,0.2,1
93613,-0.02392578,1.314453,0.34375000000000006,11.2915,-39.0625,-35.88867,76.5033,-0.7141113,142.9431,14.875,7.45,-0.85,1
93823,0.01464844,0.840332,0.1806641,-6.103516,13.67188,12.3291,76.9812,1.7248539999999999,138.0487,8.975,-40.03333,-9.175,1
94053,-0.2910156,0.9765625,0.1967773,4.577637,32.10449,-6.9580079999999995,74.70154,4.328613,143.053,20.40833,9.058333,1.8,1
94303,-0.175293,0.8935546999999999,0.2514648,11.23047,-25.45166,-22.64404,76.61316,1.5271000000000001,149.2383,4.575,-41.51667,-5.383333,1
94553,-0.02392578,0.8330078,0.02001953,-13.24463,-24.90234,14.77051,75.31128,1.065674,144.3713,18.00833,2.958333,2.541667,1
94843,-0.02734375,1.122559,0.394043,1.281738,-29.11377,-35.46143,78.25012,3.955078,135.1428,11.125,-38.775,-8.708333,1
95133,0.006835938000000001,0.8154296999999999,0.0034179690000000003,-5.554199,27.09961,-8.544922,76.72852,3.03772,138.5706,17.99167,1.525,1.766667,1
95443,-0.1879883,1.125488,0.3520508,-10.00977,23.74268,34.05762,78.58521,-0.5657959,146.283,3.708333,-42.01667,-3.866667,1
95743,-0.07910156,0.8666992,0.01171875,-15.74707,-22.09473,12.69531,76.35498,0.4119873,142.9321,19.08333,1.491667,2.991667,1
96043,0.05371094,1.206543,0.29492189999999996,-6.286621,-40.16113,-19.53125,77.69531,4.669189,131.1218,13.39167,-38.41667,-9.491667,1
96353,0.07421875,0.9409179999999999,0.184082,-4.272461,20.99609,-16.54053,74.60266,3.630981,129.1992,13.90833,-38.83333,-11.125,1
96613,-0.1235352,0.9262695,0.5175780999999999,-0.6713867,4.272461,44.18945,76.57471,1.686401,130.9406,18.8,5.2,-2.0,1
96863,-0.07080078000000001,0.9287109,0.04785156,3.90625,-7.202148,14.16016,75.33325,1.400757,128.2159,12.06667,-40.18333,-11.29167,1
97173,0.02539063,1.060547,0.4086914,-36.49902,-16.23535,-40.83252,77.65686,4.059448,125.1782,14.36667,4.033333,-2.508333,1
97503,-0.05224609,0.9589844,0.06347656,-8.422852,19.40918,-7.995605,74.23462,4.564819,127.5513,17.0,3.575,0.5083333,1
97713,-0.3081055,1.276855,0.4858398,10.37598,-7.568359,35.33936,74.9762,5.07019,132.1051,15.43333,8.016666,-1.233333,1
97933,-0.02197266,0.7792969,0.1455078,0.24414059999999999,-25.93994,-4.272461,74.58618,2.938843,130.6274,13.13333,-38.825,-9.85,1
98163,-0.008300781,1.242188,0.05859375,40.40527,-22.3999,-26.24512,74.8114,0.5767822,125.1892,15.26667,7.566667,-2.291667,1
99413,0.01953125,1.343262,0.37255859999999996,10.98633,-22.3999,-44.00635,74.88831,0.6481933999999999,113.8019,17.71667,8.491667,-0.1333333,1
99633,-0.06201172,0.7919921999999999,0.2460938,5.615234,16.11328,15.25879,75.09705,4.575806,112.0715,13.80833,2.366667,-0.5166666999999999,1
99853,0.03857422,0.8134766,0.03320313,-5.126953,27.46582,-13.24463,74.29504,4.449463,115.9387,21.06667,1.683333,0.8333332999999999,1
100073,0.01806641,1.066895,0.4155273,-6.530762,25.14648,37.65869,74.12476,0.8624267999999999,122.179,16.125,-36.96667,-12.866670000000001,1
100313,-0.05615234,0.7431641,0.1181641,-2.563477,-21.54541,3.601074,74.21814,2.614746,120.3278,15.18333,1.35,-0.9666665999999999,1
100553,-0.11279299999999999,1.308105,0.08154297,24.29199,-40.2832,-34.30176,74.76196,0.4998779,114.8511,14.425,7.033333,-2.258333,1
100773,0.0703125,0.7973633,0.15917969999999998,8.789063,-5.126953,17.63916,75.11353,3.949585,107.6385,14.325,0.30000000000000004,-1.658333,1
101083,-0.2270508,1.340332,0.4384766,10.55908,-7.324219,35.15625,74.19617,4.493408,110.5884,20.74167,-33.38334,-18.43333,1
101383,-0.03369141,0.7163086,0.1572266,-10.13184,-10.43701,1.159668,73.10852,3.257446,113.9282,13.65,1.841667,-1.775,1
101683,0.07226563,0.9555663999999999,0.5327147999999999,4.394531,-9.765625,-33.69141,73.48206,2.444458,108.4021,21.5,-32.55,-21.30833,1
101983,0.005859375,0.8569336,0.1025391,-7.751465,3.051758,-3.662109,73.17993,3.323364,103.6395,22.21667,-31.88333,-23.475,1
102263,-0.08691406,1.258301,0.12695309999999999,2.807617,31.00586,4.882813,72.25708,5.515137,106.9958,13.75833,7.941667,-0.7666666999999999,1
102503,-0.05810547,0.7924804999999999,0.17041019999999998,1.586914,-27.58789,-20.87402,74.85535,2.653198,109.0118,20.20833,-33.43333,-20.76667,1
102843,0.140625,1.245117,0.4526367,-4.699707,-19.104,-41.74805,74.51477,0.7635498,99.58557,17.13333,8.175,-1.041667,1
103043,0.015625,0.762207,0.2182617,-5.493164,0.42724609999999996,16.17432,73.97644,4.8614500000000005,95.61401,14.8,1.816667,0.025,1
103263,0.08300781,0.7822266,0.005859375,-7.080078,28.56445,-15.625,72.29004,4.207764,97.65747,21.39167,2.016667,2.158333,1
103473,-0.078125,1.201172,0.4321289,-1.464844,-5.859375,36.07178,74.30054,1.972046,101.0962,18.08333,5.225,-0.3083333,1
103693,-0.08007813,0.8144530999999999,0.1074219,-5.493164,-4.516602,10.92529,73.05359,1.6479489999999999,105.7379,18.675,-34.525,-22.94167,1
103933,-0.1035156,1.284668,0.1000977,16.11328,-47.48535,-23.13232,73.27332,-0.8239746,101.651,14.55,7.116667,-0.5,1
104183,0.01904297,0.8198242,0.16259769999999998,0.12207029999999999,15.86914,14.52637,74.70703,3.169556,97.70142,21.15833,-32.91667,-25.18333,1
104423,-0.3676758,0.9404296999999999,0.24121089999999998,10.0708,20.93506,-3.601074,71.77368,6.080933,101.5631,20.76667,6.033333,2.45,1
104693,-0.03515625,1.018066,0.43603519999999996,-10.25391,39.73389,39.91699,73.0481,1.653442,106.3367,13.50833,4.575,0.48333329999999997,1
104923,-0.07958984,0.8061522999999999,0.01660156,-8.056641,-29.78516,12.81738,71.5155,0.8624267999999999,101.7444,17.70833,-35.675,-24.95,1
105193,0.1040039,1.410156,0.2480469,0.6103516,-24.53613,-13.97705,74.54224,5.015259,93.33435,21.85833,-32.125,-26.41667,1
105483,0.02050781,0.887207,0.08300781,-14.5874,8.850098,-3.051758,73.6908,2.977295,93.00476,15.64167,3.641667,-0.25,1
105723,0.2236328,0.8857421999999999,0.4179688,-15.86914,47.30225,40.1001,74.10278,0.7855225,98.97034,15.075,4.283333,-1.375,1
106003,-0.08984375,0.8740234,-0.02587891,-13.91602,-8.544922,20.44678,73.0426,0.5053711,100.5853,17.24167,-35.39167,-23.31667,1
106333,-0.128418,1.259766,0.38818359999999996,5.310059,-19.28711,-36.92627,75.13,5.119629,92.82898,21.40833,-32.26667,-25.025,1
106613,0.07714844,0.8808594,0.1333008,3.4790039999999998,23.86475,-12.87842,72.57568,4.498901,95.02625,21.775,-32.05833,-24.70833,1
106953,-0.2558594,1.047363,0.24121089999999998,-5.187988,-0.12207029999999999,-2.929688,73.85559,0.3790283,102.8925,15.23333,2.258333,0.15,1
107153,-0.06396484,0.8955078,0.02294922,-12.45117,-12.39014,15.25879,73.2074,1.40625,100.4974,16.98333,3.666667,0.0,1
107373,0.05371094,1.321289,0.4179688,10.80322,-20.69092,-42.5415,74.04236,0.2362061,96.05347,17.93333,7.683333,0.075,1
107593,-0.007324219000000001,0.7871094,0.2426758,-11.23047,9.643555,18.12744,73.89954,4.943848,91.59851,14.35833,2.216667,-1.3333329999999999,1
107803,-0.15136719999999998,1.032715,0.1030273,4.211426,8.850098,5.432129,72.20764,5.377808,96.46545,21.81667,-32.76667,-22.36667,1
108033,-0.24511719999999998,1.4448239999999999,0.18994139999999998,7.263184,21.48438,9.338379,73.89404,-0.14282229999999999,100.8215,14.275,3.116667,1.633333,1
108313,-0.06591797,0.8330078,0.09765625,-5.981445,-11.2915,12.81738,73.74023,1.71936,98.04199,15.13333,2.091667,1.391667,1
108533,-0.2416992,0.9189453,0.4150391,-12.81738,-34.91211,-46.26465,75.70679,4.196777,93.68591,22.14167,-32.15,-22.03333,1
108783,0.01220703,0.8764647999999999,0.137207,-5.981445,7.629395,12.93945,75.64087,3.691406,91.93359,14.8,-0.9416667,-2.108333,1
109013,-0.2470703,1.000488,0.21386719999999998,5.371094,9.155273,-5.065918,73.35022,5.866699,93.38928,20.61667,4.575,3.558333,1
109233,-0.2275391,0.8745117,0.2436523,3.540039,-3.4790039999999998,-23.25439,75.09705,0.8624267999999999,99.70093,12.89167,2.4,-2.708333,1
109543,0.20947269999999998,0.980957,0.24462889999999998,18.49365,-5.126953,-6.9580079999999995,71.94946,-0.8569336,94.5813,19.28333,-34.04167,-23.34167,1
109833,-0.011230470000000001,0.765625,0.2348633,7.69043,6.347656,14.28223,74.40491,4.042969,89.30786,14.34167,1.683333,-1.4,1
110143,-0.03857422,1.1010739999999999,0.08203125,0.7324219,25.39063,16.8457,73.47107,5.537109,93.35632,22.925,-31.19167,-21.90833,1
110453,-0.09082031,0.9790038999999999,0.1118164,3.723145,-18.49365,-24.04785,76.12976,1.356812,96.26221,20.75833,-33.05,-21.34167,1
110723,-0.22167969999999998,0.9365234,0.1357422,3.4790039999999998,-24.53613,17.27295,71.85608,-0.5383300999999999,93.54858,21.68333,3.833333,2.916667,1
110963,0.1113281,1.011719,0.26269529999999996,4.577637,12.51221,1.098633,74.95422,4.674683,88.37952,23.425,-31.01667,-24.36667,1
111303,-0.2539063,0.9907227,0.18164059999999999,5.981445,14.89258,-2.990723,73.31726,5.317383,93.70239,20.925,5.8,3.15,1
111513,0.020996090000000002,1.050781,0.4101563,-10.19287,37.59766,45.41016,74.2511,0.0,98.12988,13.94167,4.025,0.425,1
111723,0.02978516,0.7338867,0.1254883,-17.15088,-21.54541,0.1831055,74.30603,1.576538,95.82275,14.125,-0.525,-1.8666669999999999,1
111933,0.22167969999999998,1.083984,0.21435549999999998,26.85547,-2.441406,-11.77979,72.51526,-1.7248539999999999,92.68066,19.19167,7.808333,0.7333333,1
112153,0.06542969,0.8027344,0.1850586,5.249023,13.67188,26.61133,74.15222,4.125366,89.15405,23.25833,-31.4,-24.23333,1
112383,0.01855469,1.003418,0.171875,-0.9765625,29.66309,-11.16943,71.62537,5.377808,93.51013,19.35,5.875,2.158333,1
112643,-0.2119141,0.7763671999999999,0.27783199999999997,3.967285,-19.9585,-26.7334,73.6084,0.5108642999999999,100.7501,19.33333,-34.38334,-19.19167,1
112883,-0.07763672,0.8183594,-0.02783203,-20.08057,-35.5835,12.87842,71.79016,1.049194,95.60852,20.70833,5.0,5.825,1
113153,0.02148438,1.065918,0.4541016,3.90625,7.69043,-53.40576,73.38318,2.49939,90.88989,23.675,4.608333,2.483333,1
113363,0.02392578,0.796875,0.1650391,13.3667,-8.239746,15.625,74.11377,4.581299,85.91309,14.6,1.05,-2.35,1
113583,-0.09570313,1.236816,0.362793,5.432129,3.845215,17.45605,72.83936,5.147095,88.41797,16.58333,8.583333,-2.733333,1
113863,-0.004394531,0.8242187999999999,0.1342773,-17.7002,-10.68115,-3.356934,73.49854,1.439209,92.71912,20.68333,-33.025,-23.075,1
114143,0.2519531,1.040527,0.25537109999999996,11.47461,-7.507324,1.159668,70.96069,-1.917114,89.6814,20.325,11.20833,0.08333334,1
115343,0.25439449999999997,1.271973,0.6127929999999999,3.051758,4.638672,-52.55127,73.6084,0.5877686,89.23096,22.075,5.6,0.06666667,1
115603,-0.07226563,0.8520508,0.1079102,-14.28223,27.09961,-6.286621,72.96021,3.026733,92.21924,15.41667,2.8,0.2166667,1
115883,-0.09033203000000001,0.8505859,0.4477539,-7.080078,25.02441,61.64551,74.02588,1.966553,99.5636,17.93333,-34.58333,-16.925,1
116183,-0.015136720000000001,0.8828125,0.1279297,-0.7324219,-20.26367,-16.90674,74.91028,2.554321,100.1514,15.49167,0.1916667,-2.008333,1
116473,-0.2011719,1.181641,0.4638672,1.586914,-25.39063,-44.55566,74.77295,5.855713,90.86792,22.79167,-30.80833,-21.51667,1
116723,-0.03271484,0.8466796999999999,0.1157227,-13.06152,8.850098,-2.868652,74.20715,4.141846,90.5658,14.28333,2.175,-1.6,1
116983,-0.02783203,1.004883,0.5136719,4.638672,6.469727,41.38184,73.66333,3.641968,93.74084,20.28333,-32.59167,-20.46667,1
117213,-0.1889648,0.8310546999999999,0.2148438,5.249023,-16.05225,-20.75195,73.70178,2.642212,96.4325,13.51667,2.2,-1.191667,1
117453,-0.23730469999999998,0.8735352,0.1191406,-9.033203,-33.26416,19.77539,71.00464,0.3790283,92.16431,21.96667,0.75,2.825,1
117673,0.2324219,1.03125,0.3227539,-1.6479489999999999,-2.075195,-0.8544921999999999,73.32825,5.635986,85.00671,23.21667,-30.08333,-25.30833,1
117923,-0.02392578,0.8701171999999999,-0.008300781,-10.80322,18.79883,-12.51221,72.77893,4.350586,86.9458,18.55833,3.433333,2.5,1
118193,-0.09863281,1.256348,0.36474609999999996,4.211426,-15.50293,44.00635,74.29504,3.218994,89.84619,20.50833,4.441667,-0.025,1
118403,-0.08105469,0.8413086,0.12744139999999998,-2.258301,-9.155273,8.239746,73.10852,2.04895,93.63098,19.65833,-33.14167,-22.21667,1
118653,-0.009277344,1.377441,0.04785156,29.23584,-24.78027,-26.18408,71.97693,-0.5767822,90.62073,12.91667,6.625,-1.05,1
118903,0.04833984,0.8168945,0.17431639999999998,4.699707,1.098633,20.01953,74.15222,4.092407,85.22644,22.3,-30.78333,-25.225,1
119163,-0.2163086,1.055664,0.24072269999999998,19.04297,8.850098,-2.380371,72.5592,5.608521,87.43469,22.36667,5.958333,3.358333,1
119413,-0.24414059999999999,0.7099609,0.2573242,-7.019043,2.502441,-19.65332,72.6416,1.049194,93.91663,19.925,-32.85,-22.175,1
119733,0.1157227,1.1010739999999999,0.2182617,29.72412,-3.356934,-9.94873,70.69153,-1.356812,90.60425,15.33333,7.641667,-1.208333,1
120023,0.0034179690000000003,0.7573242,0.2148438,14.64844,3.051758,22.27783,72.90527,3.966064,86.29211,22.04167,-31.075,-25.29167,1
120323,-0.02783203,1.255371,0.16259769999999998,8.911133,19.104,10.86426,72.28455,4.768066,91.47766,21.8,-31.275,-21.75833,1
120593,-0.34179689999999996,0.9194336,0.3007813,-3.845215,0.7324219,-8.056641,73.38867,0.5987549,96.46545,14.50833,3.033333,0.7833333,1
120773,-0.128418,0.8935546999999999,0.05175781,-13.18359,-16.41846,18.43262,73.00415,1.636963,93.80676,17.95,4.958333,0.2,1
120983,-0.03222656,1.23291,0.31689449999999997,1.220703,-29.60205,-38.94043,73.94897,0.4504395,88.52234,16.38333,8.041667,0.8166667,1
121213,0.0234375,0.7846679999999999,0.17382809999999999,-11.96289,8.300781,9.70459,74.76746,2.48291,84.10583,21.93333,-31.20833,-25.45833,1
121443,-0.32519529999999996,1.061523,0.05810547,14.28223,14.22119,0.24414059999999999,72.11975,4.916382,87.84668,19.65833,8.725,1.5833329999999999,1
121683,0.1435547,1.151367,0.45117189999999996,4.882813,49.25537,23.01025,73.42163,-0.0604248,93.07617,13.06667,4.15,2.241667,1
121903,-0.1713867,0.8037109,0.06689453000000001,-9.887695,-21.54541,21.91162,73.42712,0.2307129,92.66418,18.98333,-33.925,-21.43333,1
122153,-0.0004882813,0.9648437999999999,0.5341796999999999,-5.554199,-6.9580079999999995,-40.64941,76.0199,1.96106,87.55005,21.15833,5.375,-0.55,1
122423,0.1362305,0.796875,0.1962891,-4.272461,-5.065918,11.1084,75.40466,2.8125,83.20496,14.45833,1.683333,-1.683333,1
122633,-0.0009765625,1.091309,0.12207029999999999,-0.06103516,25.63477,6.347656,73.01514,5.229492,86.04492,23.79167,-30.31667,-23.075,1
122883,-0.22949219999999998,1.2685549999999999,0.22167969999999998,-1.586914,4.821777,10.19287,74.59717,0.2142334,90.83496,15.25,3.358333,0.7833333,1
123133,-0.203125,0.8774413999999999,0.14306639999999998,-11.59668,-18.98193,19.16504,71.61438,0.44494629999999996,87.03918,20.49167,-33.0,-25.33333,1
123393,-0.02392578,0.7338867,0.3305664,8.117676,-5.249023,-43.64014,74.88831,1.955566,84.27612,17.89167,6.308333,0.4,1
123643,-0.015625,0.840332,0.03808594,-16.72363,54.62646,4.638672,75.8606,3.087158,90.93384,22.2,-31.875,-18.7,1
123943,-0.06396484,0.8759766,0.42041019999999996,-27.58789,73.85254,53.4668,73.47656,0.7745361,109.5612,14.38333,5.208333,-2.5,1
124253,-0.2231445,0.8764647999999999,0.16699219999999998,-21.60645,13.5498,8.422852,69.49951,1.785278,123.761,9.608334,-40.01667,-9.658334,1
124553,-0.27783199999999997,1.021484,0.39599609999999996,6.835938,49.37744,0.24414059999999999,72.67456,2.861938,132.7533,5.025,-40.875,-3.108333,1
124863,-0.15917969999999998,0.8334961,0.1577148,-8.789063,97.59521,24.84131,73.57544,0.6701659999999999,157.868,15.725,1.666667,0.55,1
125103,-0.284668,0.9921875,0.6020508,-10.37598,90.14893000000001,83.25195,73.59192,0.5163574,179.7253,19.34167,5.6,-2.466667,1
125323,-0.3125,0.8671875,0.05175781,-10.19287,79.52881000000001,26.48926,74.06982,0.9173583999999999,-147.6782,-38.83333,-38.63334,-10.48333,1
125553,0.16601559999999999,1.32666,0.3525391,20.50781,37.17041,-2.502441,74.0863,-0.5163574,-137.84,14.1,7.9,-0.6833332999999999,1
125823,-0.1030273,0.9853516,0.34179689999999996,0.12207029999999999,70.37354,30.76172,74.1687,0.054931640000000004,-126.0022,14.49167,4.325,0.7000000000000001,1
126033,-0.1264648,0.9140625,0.144043,6.347656,51.75781,15.99121,73.927,-1.763306,-110.9949,14.69167,2.358333,0.5416667,1
126263,-0.01953125,0.9633788999999999,0.3857422,-6.835938,43.396,34.91211,75.06958,-0.38452149999999996,-97.13562,-48.175,-29.95,-39.50834,1
126503,-0.07080078000000001,0.7651367,0.21289059999999999,12.57324,52.24609,-4.089355,75.19043,0.5053711,-85.20447,15.15833,2.033333,0.8083332999999999,1
126743,-0.001953125,1.364746,0.25439449999999997,24.71924,-39.91699,-21.97266,76.82739,0.20324709999999999,-82.56775,-45.01667,-29.54167,-44.14167,1
126983,0.15478519999999998,1.015625,0.2749023,5.737305,-10.43701,8.850098,77.1405,3.806763,-88.12134,15.16667,3.65,1.208333,1
127273,0.056640630000000004,1.007813,0.2304688,1.6479489999999999,38.75732,-21.05713,74.91577,3.817749,-84.56177,-42.15,-31.01667,-44.61666,1
127573,-0.1831055,1.006836,0.2797852,-12.51221,3.4790039999999998,2.990723,75.30029,2.021484,-77.7063,14.21667,3.8,0.6833332999999999,1
127873,-0.1557617,0.8710937999999999,0.1572266,-9.216309,-24.23096,18.67676,73.05908,1.922607,-79.67285,-43.89167,-28.26667,-46.25,1
128173,0.03564453,1.220215,0.3422852,-3.967285,-22.52197,-13.30566,75.39917,5.339355,-87.28088,14.64167,4.041667,0.48333329999999997,1
128473,0.12744139999999998,0.8188477,0.1367188,-7.324219,37.65869,-13.42773,74.24011,3.823242,-85.79224,-42.13334,-31.13333,-43.10833,1
128783,0.0,1.129883,0.30273439999999996,-5.737305,24.35303,33.08105,74.70703,-0.01098633,-77.61292,-43.225,-27.78333,-46.95833,1
129223,0.0034179690000000003,1.502441,0.3032227,30.15137,-16.72363,-37.78076,76.44836,1.257935,-75.75623,17.13333,8.475,-1.175,1
129553,-0.03662109,0.8701171999999999,-0.006835938000000001,-13.06152,28.56445,1.037598,76.02539,3.757324,-68.97217,-38.60833,-29.175,-49.01667,1
129783,-0.2988281,1.197754,0.3588867,4.211426,-17.63916,15.25879,77.67883,4.213257,-64.94019,16.93333,6.908333,-2.75,1
130053,-0.159668,0.7241211,0.2436523,-16.11328,0.8544921999999999,-24.29199,75.90454,1.082153,-62.45178,13.025,2.666667,-1.358333,1
130263,-0.07128906,0.9116211,-0.011230470000000001,-11.35254,-15.99121,13.85498,74.06433,1.7303469999999999,-63.89648,18.94167,2.275,3.533333,1
130483,0.03466797,1.11084,0.3505859,-3.112793,-1.6479489999999999,-1.403809,75.95947,5.575562,-69.13147,-38.13334,-29.50833,-48.48333,1
131693,-0.18603519999999998,1.150391,0.36474609999999996,-8.422852,-38.26904,-24.53613,74.9707,6.157837,-88.21472,11.59167,3.3,0.01666667,1
131903,0.1201172,0.9238280999999999,0.15820309999999999,-12.75635,40.77148,-10.43701,72.92175,4.828491,-86.84143,-41.04167,-31.74167,-40.70833,1
132143,0.09619141,0.8710937999999999,0.4804688,-10.62012,1.159668,32.71484,73.74023,3.548584,-81.95801,19.13333,4.558333,-1.666667,1
132383,-0.01220703,0.8393554999999999,0.05810547,13.12256,-15.99121,11.59668,72.78992,2.834473,-83.78723,-43.16667,-29.975,-41.00834,1
132633,0.09326172,1.486816,0.4174805,14.77051,-14.09912,-45.16602,74.55872,1.554565,-88.40149,15.18333,8.416667,-2.05,1
132913,0.02587891,0.9062500000000001,0.1640625,13.42773,9.033203,13.42773,74.26208,3.488159,-91.17554,-43.31667,-31.86667,-36.775,1
133213,-0.04394531,1.048828,0.4223633,-16.72363,-22.58301,22.15576,73.46558,3.345337,-87.07214,16.075,7.05,-2.041667,1
133513,-0.03417969,0.7480469,0.1616211,5.187988,-1.037598,1.953125,72.71851,3.186035,-82.41943,-43.28333,-29.95,-41.48333,1
133813,-0.01171875,0.8413086,0.5,-14.4043,2.807617,-36.68213,73.42163,3.949585,-87.3468,19.825,5.375,-0.6000000000000001,1
134123,-0.08691406,0.8691405999999999,0.1015625,-8.422852,9.399414,-2.13623,72.73499,3.235474,-87.62695,-42.94167,-31.25,-39.3,1
134433,0.06982422,0.7739258,0.4633789,-9.338379,1.525879,18.61572,72.35046,2.702637,-83.02368,17.25,5.283333,-1.433333,1
134803,0.1289063,1.128906,0.1850586,18.24951,-13.12256,-10.80322,72.37793,0.1483154,-84.0564,-45.375,-29.85833,-38.9,1
135053,-0.1044922,1.092285,0.4208984,-6.896973,-22.46094,-21.3623,73.17993,5.306396,-89.6814,11.80833,4.35,0.5333333,1
135313,0.07470703000000001,0.8886719,0.08007813,-18.9209,23.74268,-11.35254,71.81763,3.982544,-85.70984,-42.73333,-31.325,-40.325,1
135543,-0.01416016,0.921875,0.5068359,-6.103516,-5.249023,28.44238,72.20215,3.235474,-82.17773,20.7,5.933333,0.9500000000000001,1
135783,-0.18164059999999999,0.6596679999999999,0.2573242,17.57813,15.56396,-24.16992,71.44958,2.175293,-77.25037,13.15,2.991667,1.616667,1
136003,0.07324219,1.411621,0.3134766,17.27295,-36.01074,-34.85107,73.2074,1.318359,-81.19995,-44.825,-29.85,-40.375,1
136243,0.2880859,0.9438477,0.3608398,2.01416,-8.178711,-2.624512,74.14124,4.790039,-87.68188,14.79167,4.208333,0.6833332999999999,1
136523,0.03808594,0.9321288999999999,0.12207029999999999,-13.24463,4.821777,-5.859375,73.59192,2.526855,-86.83044,17.36667,3.716667,-0.5833332999999999,1
136733,0.02001953,0.7607421999999999,0.4760742,-17.21191,27.52686,20.26367,72.57568,2.510376,-82.91931,-44.725,-29.91667,-40.76667,1
136973,-0.07324219,0.7988280999999999,0.1889648,10.19287,-6.652832,-8.056641,72.63062,3.339844,-80.15625,15.225,1.5833329999999999,0.65,1
137233,-0.07910156,1.4873049999999999,0.2075195,19.28711,-31.92139,-34.5459,73.54797,2.125854,-83.32581,-44.55833,-31.11667,-38.11666,1
137493,0.1079102,0.8286133,0.2963867,-5.371094,-16.23535,9.643555,72.84485,5.454712,-88.73657,14.94167,3.15,2.183333,1
137743,-0.1376953,1.105469,0.168457,18.79883,21.1792,4.699707,72.69653,4.806519,-86.87439,-43.225,-32.4,-36.98333,1
138043,-0.1293945,0.7358397999999999,0.2758789,-7.8125,9.033203,-18.31055,72.5647,0.8734130999999999,-81.85913,13.46667,2.283333,0.375,1
138343,0.10498049999999999,1.234863,0.137207,22.58301,-1.403809,-13.18359,73.02612,0.1043701,-81.84265,-45.65833,-30.60833,-37.34167,1
138653,0.05371094,0.7089844,0.2124023,9.82666,-10.86426,18.24951,74.29504,4.454956,-86.14929,-44.08333,-32.29167,-35.825,1
138923,0.1435547,0.9077147999999999,0.1386719,-12.3291,32.89795,-14.46533,72.81738,4.520874,-83.90259,26.075,2.166667,-0.5083333,1
139203,-0.07470703000000001,1.114746,0.31835939999999996,8.178711,17.51709,15.07568,72.51526,1.1920169999999999,-78.54675,12.5,3.716667,1.633333,1
139423,-0.21386719999999998,0.949707,0.18603519999999998,-2.685547,-25.93994,19.53125,71.85059,0.7525634999999999,-79.93652,-45.76667,-29.49167,-39.45833,1
139653,0.09423828000000001,0.8793945,0.5161133,-6.774902,1.098633,-35.40039,73.00964,4.295654,-84.51782,18.2,4.883333,-0.15833329999999998,1
139923,0.11279299999999999,0.7636719,0.2421875,11.47461,7.019043,17.7002,72.91626,4.174805,-85.72632,15.975,0.9666665999999999,-1.766667,1
140133,0.15136719999999998,1.02832,0.24072269999999998,-4.02832,53.40576,-6.591797,71.30676,5.9545900000000005,-80.49133,19.16667,7.016667,-2.158333,1
140353,-0.1923828,0.7070312999999999,0.2592773,1.708984,1.464844,-25.14648,71.60889,2.411499,-74.42688,-42.66667,-29.78333,-43.21667,1
140603,-0.12695309999999999,0.9101562999999999,0.03271484,-3.417969,-30.0293,13.79395,71.60339,1.96106,-77.66785,21.73333,0.1083333,4.466667,1
140843,0.02197266,1.211426,0.2963867,-0.9765625,-9.58252,3.90625,73.32825,6.207275,-85.29785,-41.86666,-32.94167,-37.15,1
141083,-0.0859375,0.9477538999999999,0.0625,-9.094238,22.09473,-0.24414059999999999,73.64136,3.587036,-81.42517,16.65833,3.566667,-0.8416665999999999,1
141373,0.2348633,0.75,0.4018555,-18.9209,35.15625,27.09961,72.6416,2.878418,-74.17419,-41.95,-30.15,-44.44167,1
141663,-0.1621094,0.9023437999999999,-0.0034179690000000003,-1.7700200000000001,-14.4043,18.24951,72.60864,2.93335,-70.60913,19.05833,4.541667,1.141667,1
141973,-0.2026367,1.13916,0.4443359,3.112793,-35.82764,-29.47998,73.02063,6.053467,-80.15625,-40.29167,-33.43333,-39.33333,1
142263,0.1259766,0.8935546999999999,0.08984375,-16.05225,24.41406,-10.92529,72.1637,4.9493409999999995,-79.50806,23.85833,1.183333,1.391667,1
142573,-0.1674805,1.104004,0.2651367,-6.530762,17.27295,2.929688,73.57544,0.7800292999999999,-73.72925,-42.31667,-31.10833,-41.45,1
142873,-0.1699219,1.101563,0.2080078,-2.13623,-43.70117,7.385254,73.53149,0.5657959,-76.47583,-43.56667,-31.4,-37.475,1
143153,-0.2084961,1.04248,0.49853519999999996,-5.310059,-8.666992,-35.64453,74.87183,6.026001,-79.93652,14.1,3.825,1.675,1
143403,0.02050781,0.8491211,0.026367190000000002,-8.972168,23.74268,-16.90674,74.60266,4.9273679999999995,-74.79492,22.38333,0.1166667,0.06666667,1
143733,0.01074219,1.148926,0.3447266,1.7700200000000001,21.85059,7.93457,74.26208,1.186523,-70.96069,13.11667,3.425,0.7916667,1
143943,0.02148438,0.7988280999999999,0.1337891,-2.868652,-17.21191,3.845215,73.64136,2.889404,-73.71277,15.08333,1.783333,0.1166667,1
144153,-0.006347656,1.394531,0.04833984,17.82227,-41.99219,-27.89307,73.8446,1.18103,-78.90381000000001,15.65833,9.483334,-1.266667,1
144363,0.20996089999999998,0.9360352,0.28662109999999996,-5.981445,-9.521484,21.30127,73.61389,6.240234,-82.2821,14.4,2.741667,1.741667,1
144583,-0.1479492,1.011719,0.22851559999999999,6.530762,16.29639,-4.211426,72.39441,5.905151,-78.33801,-40.43333,-34.19167,-37.83333,1
144823,-0.05810547,1.04248,0.43505859999999996,-20.50781,30.0293,34.11865,72.55371,1.593018,-75.6958,11.65,4.191667,-1.383333,1
145073,-0.08105469,0.9277344,-0.005859375,-10.31494,-8.789063,22.09473,71.04858,1.329346,-75.98145,-44.45833,-31.04167,-38.75,1
145313,0.01855469,0.9370117,0.5644530999999999,-7.263184,18.00537,-40.71045,72.71851,3.652954,-79.22791,20.15,5.2,0.4166667,1
145603,-0.06787109,0.875,0.03417969,-10.98633,13.73291,-4.394531,73.87207,4.141846,-79.10156,-41.59167,-33.33333,-36.79167,1
145903,0.1879883,1.010254,0.44287109999999996,-12.63428,44.06738,30.76172,73.53699,1.713867,-72.36145,12.35833,3.891667,-0.04166667,1
146203,-0.137207,0.8344727,0.04785156,-11.04736,-32.04346,12.57324,72.22961,0.9173583999999999,-71.25183,-45.33333,-29.71667,-39.21667,1
146503,0.1958008,1.0625,0.29492189999999996,-5.187988,-6.530762,4.638672,74.53674,5.597534,-78.69507,14.08333,3.341667,1.558333,1
146803,-0.05810547,1.031738,0.2436523,2.807617,38.0249,-5.004883,73.2843,5.20752,-70.92224,-41.625,-32.03333,-40.925,1
147103,-0.159668,0.6831054999999999,0.2651367,-7.446289,13.48877,-17.82227,73.42163,1.09314,-64.87427,-43.625,-29.03333,-43.85,1
148364,-0.01367188,0.7255859,0.140625,-6.286621,-28.25928,-4.882813,73.99841,3.411255,-55.83801,14.09167,0.2166667,-1.275,1
148643,0.05175781,0.8901367,0.4833984,-9.460449,6.103516,-46.02051,74.67957,4.844971,-63.49548,-41.11666,-30.975,-45.01667,1
148953,0.03564453,0.8964844,0.04785156,-14.16016,15.86914,-3.417969,75.56946,4.103394,-62.6001,17.63333,2.841667,0.15,1
149183,-0.1918945,1.245117,0.5302734,6.591797,-12.69531,36.19385,75.41016,4.465942,-57.42554,17.725,8.341666,-2.291667,1
149413,-0.04638672,0.7402344,0.13476559999999999,-5.432129,4.394531,-0.8544921999999999,74.62463,2.334595,-51.32263,-39.44167,-27.55833,-51.875,1
149643,0.0,1.212402,-0.06591797,54.93164,-1.159668,-18.49365,73.97644,0.6262207,-52.02576,16.81667,11.05,-1.416667,1
149883,0.06152344,1.168457,0.2954102,-6.04248,-16.23535,10.19287,74.46533,5.72937,-56.50818,11.025,3.416667,0.05,1
150103,0.030273440000000002,1.044922,0.2426758,-0.4882813,38.51318,-15.01465,73.21289,6.339111,-49.16931,-34.675,-29.31667,-53.61666,1
150343,0.4072266,0.8925780999999999,0.4936523,-8.850098,40.2832,47.11914,74.20715,1.439209,-44.11011,13.05,4.991667,-0.25,1
150623,0.0,0.7773437999999999,0.1621094,-2.990723,-23.19336,-13.79395,74.52026,3.795776,-44.00024,14.5,-0.8,-1.383333,1
150833,0.08300781,0.9819336,0.5703125,-10.74219,15.86914,-52.49023,75.52551,4.290161,-51.71814,-36.45,-30.40833,-51.05,1
151073,0.05566406,0.7089844,0.1850586,11.71875,16.05225,25.45166,75.87708,5.108643,-52.38831,14.4,1.208333,-2.091667,1
151333,-0.215332,1.242676,0.45800779999999996,1.159668,-9.887695,36.31592,75.43213,5.410767,-45.48889,-34.15,-29.675,-53.36666,1
151593,-0.1713867,0.6923828,0.265625,-6.469727,2.197266,-19.16504,74.44885,1.433716,-40.98999,12.76667,2.016667,-1.25,1
151843,0.01367188,1.353027,0.1123047,39.24561,-10.92529,-22.15576,72.99866,0.302124,-46.15906,-36.38334,-28.71667,-52.84167,1
152143,0.08007813,0.7924804999999999,0.2006836,14.52637,22.33887,26.79443,75.04761,4.855957,-46.23047,15.19167,1.383333,-1.858333,1
152443,-0.34082029999999996,1.293457,0.42675779999999996,9.155273,-9.338379,30.39551,75.58594,5.278931,-39.09485,-31.35,-29.79167,-54.86666,1
152753,-0.01171875,0.8129883,0.1152344,-0.12207029999999999,-4.821777,-0.24414059999999999,75.56946,2.6971439999999998,-34.59045,-30.04167,-28.58333,-56.76667,1
153023,0.1337891,1.20459,0.07177734,40.46631,-8.544922,-16.96777,74.22913,0.1647949,-37.21069,15.025,9.141666,-0.4166667,1
153303,0.06396484,0.7080078,0.2006836,11.77979,21.42334,24.53613,75.9375,4.784546,-38.44666,15.30833,0.6416666999999999,-1.525,1
153523,-0.34130859999999996,1.3310549999999999,0.3076172,12.45117,14.34326,23.01025,76.19568,5.701904,-29.11926,-25.20833,-29.90833,-56.86666,1
153753,-0.22509769999999998,0.8076171999999999,0.2871094,-16.29639,3.2958979999999998,-13.42773,75.51453,1.09314,-24.43359,-25.56667,-28.00833,-58.31667,1
153993,-0.1118164,0.9384766,-0.008300781,-10.86426,-28.25928,11.35254,74.13025,2.301636,-28.59741,18.36667,4.183333,2.966667,1
154233,0.1318359,1.049805,0.5292969,-8.300781,10.00977,-44.37256,75.69031,3.411255,-34.12903,22.44167,6.783333,1.541667,1
154453,-0.05712891,0.7958984,0.10693359999999999,-6.591797,20.75195,3.662109,76.61865,4.460449,-32.47559,-26.50833,-29.86667,-55.625,1
154703,-0.09277344,1.280762,0.09521484000000001,-6.286621,40.22217,16.17432,76.79443,5.657959,-26.57593,14.45,8.841666,-2.308333,1
154943,-0.1499023,0.7709961,0.1689453,13.00049,-0.12207029999999999,-11.65771,76.28357,2.026978,-21.59363,-24.11667,-28.125,-58.01667,1
155183,-0.128418,1.115723,0.2324219,-1.281738,-24.6582,6.286621,74.82239,-0.7086182,-23.23608,23.44167,6.533333,2.8083329999999997,1
155473,-0.01220703,0.7724609,0.24462889999999998,14.34326,13.91602,11.53564,78.28308,5.213013,-25.04883,-23.55833,-30.04167,-56.30833,1
155763,-0.06005859,1.317383,0.08544922,-0.6713867,31.12793,17.02881,77.01965,5.136108,-16.00708,14.975,6.241667,-0.9083334,1
156073,-0.1728516,0.6650391,0.1855469,3.662109,20.62988,-12.87842,76.32202,0.9887695,-9.272461,-17.79167,-27.525,-60.15833,1
156373,0.05908203,1.385254,0.2573242,17.21191,-43.21289,-28.9917,77.16248,-0.1208496,-12.2937,17.98333,9.55,-1.241667,1
156673,0.052734380000000004,0.7832030999999999,0.1728516,5.981445,40.64941,26.55029,77.00867,3.339844,-7.844238,-13.8,-27.84167,-60.325,1
156983,-0.1044922,0.8974609,0.4316406,-8.666992,-13.06152,42.96875,76.48132,3.076172,0.4174805,-10.75,-27.81667,-60.25,1
157253,-0.1728516,0.6962891,0.23291019999999998,3.90625,-10.92529,-23.31543,75.88806,1.213989,2.411499,13.18333,2.091667,-0.2583333,1
157553,0.004882813000000001,1.369629,0.2651367,12.81738,-45.41016,-28.32031,75.66833,0.0604248,-5.806274,14.76667,7.475,-0.2583333,1
157733,0.2514648,0.8696288999999999,0.3149414,1.159668,11.47461,9.277344,76.20667,5.531616,-9.51416,14.21667,3.316667,0.9916666999999999,1
157923,-0.01220703,0.8154296999999999,-0.004882813000000001,-11.90186,41.87012,-6.835938,75.88257,3.988037,-3.762817,18.50833,2.733333,2.333333,1
158133,-0.22949219999999998,1.174805,0.5195313,3.112793,-17.57813,44.06738,76.58569,3.900146,2.455444,20.43333,6.583333,0.9833333999999999,1
158343,-0.1362305,0.8183594,0.19775389999999998,12.69531,-9.338379,-21.11816,77.03064,0.8898925999999999,6.350098,12.15,2.8,-0.5916667,1
158563,-0.16601559999999999,1.231934,-0.12695309999999999,35.40039,-18.00537,-16.96777,76.09131000000001,-0.39550779999999996,0.5877686,-11.89167,-28.53333,-59.35,1
158803,0.20605469999999998,1.102051,0.31005859999999996,-12.45117,-10.0708,15.86914,77.16797,5.784302,-2.345581,11.96667,3.366667,-0.075,1
159083,-0.05908203,0.8325195,0.01611328,-16.11328,16.96777,-7.507324,76.51428,3.526611,0.8184813999999999,18.475,3.308333,-0.1166667,1
159293,0.1850586,0.8686522999999999,0.503418,-21.48438,28.13721,30.45654,75.36621,0.7910155999999999,5.822754,-6.883333,-27.68333,-60.43333,1
159533,-0.009277344,0.7729492,0.1640625,1.586914,-13.5498,-8.850098,74.94873,2.032471,6.410522,14.65833,0.1333333,0.06666667,1
159793,0.1689453,1.133301,0.4082031,-0.9155272999999999,-4.455566,-37.23145,76.4978,1.801758,1.664429,-7.641667,-28.475,-59.41667,1
160053,0.10058589999999999,0.7021484,0.22949219999999998,-2.624512,-9.58252,15.99121,76.21216,4.751587,-1.664429,14.3,1.633333,-0.1916667,1
160303,0.02587891,1.468262,0.11621089999999999,12.81738,29.72412,14.5874,75.87158,4.0979,2.219238,-6.15,-28.375,-59.675,1
160603,-0.1992188,0.7089844,0.1992188,5.004883,11.90186,-15.86914,74.76196,0.2416992,6.047974,12.425,2.066667,0.36666669999999996,1
160903,-0.2075195,1.3979489999999999,0.02539063,21.48438,-35.21729,-34.85107,75.33875,-0.5603026999999999,4.21875,-7.216667,-28.55833,-60.325,1
161223,0.08496094,0.7841796999999999,0.1831055,20.08057,8.972168,21.30127,76.77246,2.680664,1.906128,14.81667,0.2916667,-1.716667,1
161543,-0.2958984,1.165039,0.4453125,-2.746582,-17.45605,40.64941,76.83838,2.609253,7.338867,17.03333,7.933333,-3.275,1
161853,-0.0009765625,0.7822266,0.09179688,0.4882813,-9.70459,0.9155272999999999,75.14648,0.637207,9.212036,14.575,0.4583333,-1.058333,1
162103,0.05517578,0.8344727,0.5478516,-11.23047,11.96289,-39.00146,75.75623,2.664185,4.482422,-3.925,-28.70833,-60.54167,1
162333,0.07763672,0.8330078,0.1835938,15.50293,19.53125,20.56885,75.93201,2.889404,4.130859,13.875,-0.6583333,-0.5,1
162583,-0.184082,1.172852,0.11621089999999999,23.74268,29.84619,6.774902,74.86633,4.421997,9.678955,16.41667,7.45,-0.9416667,1
162793,-0.19042969999999998,0.6860352,0.21386719999999998,5.126953,-9.521484,-27.70996,75.22339,-0.03295898,13.9801,-1.425,-28.90833,-59.03333,1
163033,-0.2568359,0.9414062999999999,0.1811523,-9.521484,-43.94531,9.82666,74.08081,-0.5383300999999999,9.63501,27.28333,6.516667,1.825,1
163313,-0.2524414,0.9252929999999999,0.4628906,-7.629395,-18.06641,-27.58789,75.20691,3.674927,6.849976,14.64167,4.758333,-0.30000000000000004,1
164513,0.2768555,0.9023437999999999,0.331543,-3.540039,-11.47461,4.02832,75.81116,4.361572,4.086914,13.69167,3.45,2.583333,1
164723,0.07958984,0.8232421999999999,-0.04150391,-11.84082,21.48438,-9.70459,75.59143,2.713623,4.77356,20.2,1.158333,4.65,1
164943,0.31689449999999997,1.084961,0.45166019999999996,-1.6479489999999999,33.3252,10.49805,74.52026,-0.3900146,10.21729,11.60833,3.758333,-0.225,1
165223,-0.2260742,0.8930663999999999,0.1040039,-18.12744,-37.78076,14.28223,73.11951,-0.5932617,8.00354,-4.35,-27.73333,-61.875,1
165513,0.07861328000000001,0.7636719,0.49707029999999996,-0.12207029999999999,-3.845215,-38.39111,74.78394,2.449951,3.554077,18.7,5.3,-1.066667,1
165753,0.04394531,0.8916016,0.08544922,-13.42773,16.8457,-0.5493163999999999,75.03113,1.972046,3.652954,17.14167,4.433333,1.225,1
166033,0.3242188,0.8793945,0.4726563,-12.93945,48.0957,30.39551,75.34424,-0.40649409999999997,10.26672,-0.5,-29.65,-60.775,1
166313,0.01367188,0.7250977,0.152832,-5.859375,-6.835938,-3.90625,76.19019,1.3348389999999999,11.75537,15.38333,-0.2833333,-2.075,1
166553,0.08691406,1.131348,0.5190429999999999,-1.098633,6.591797,-46.14258,76.68457,1.411743,6.256714,-1.7,-30.15,-61.10833,1
166893,0.04638672,0.9716796999999999,0.09912109000000001,-15.80811,20.56885,-8.605957,75.08057,2.438965,4.894409,16.05833,3.083333,0.65,1
167123,-0.1176758,1.420898,0.3476563,25.02441,14.95361,25.75684,75.6189,3.812256,10.55786,14.14167,6.05,-2.016667,1
167313,-0.1918945,1.020508,0.2578125,-12.69531,2.929688,0.3662109,75.77271,0.269165,14.72168,13.4,2.833333,0.6000000000000001,1
167523,-0.1137695,0.9780272999999999,0.041015630000000004,-10.86426,-15.44189,13.18359,74.70703,1.752319,11.92566,17.65833,3.791667,0.725,1
167743,-0.06152344,0.8720703,0.4995117,-3.90625,-31.37207,-33.20313,75.6958,4.570313,4.273682,-0.15,-29.41667,-60.925,1
167973,-0.06689453000000001,0.8784179999999999,0.09277344,-10.00977,4.699707,-1.281738,76.59668,1.96106,3.081665,14.60833,3.0,-1.433333,1
168223,-0.03173828,1.39209,0.140625,4.089355,27.771,13.30566,75.33325,3.619995,6.558838,15.275,7.008333,-0.025,1
168443,-0.2119141,0.7895508,0.18652339999999998,18.18848,0.24414059999999999,-15.07568,76.07483,0.7196045,12.65076,1.391667,-30.15833,-59.525,1
168683,-0.2670898,1.005371,0.22509769999999998,5.065918,-31.92139,14.70947,74.39941,-0.9228516,11.62903,24.28333,5.391667,3.025,1
168953,-0.109375,0.7680663999999999,0.2607422,-12.08496,-24.16992,-32.71484,76.43738,2.927856,7.998047,15.46667,5.0,-0.1916667,1
169183,0.1679688,0.8603516,0.01953125,-9.94873,23.19336,-8.422852,76.19019,2.06543,4.328613,-0.17500000000000002,-29.14167,-60.46667,1
169453,0.09277344,0.9902344,0.4453125,-3.234863,52.97852,28.93066,76.02539,-0.302124,11.72241,0.7000000000000001,-29.90833,-59.16667,1
169743,-0.06933594,0.7749022999999999,0.1079102,-2.868652,2.807617,4.882813,77.00317,0.7965088,16.3147,14.31667,1.275,-1.083333,1
169993,0.06347656,0.9648437999999999,0.6079102,-13.79395,2.990723,-42.23633,77.20093,1.7248539999999999,10.48645,2.216667,-29.16667,-60.0,1
170263,-0.056640630000000004,0.9594727,0.020996090000000002,-16.72363,8.850098,-13.24463,76.27258,3.14209,8.492431999999999,2.083333,-28.85,-60.26667,1
170543,-0.2714844,1.375,0.22998049999999998,14.22119,-5.371094,27.28271,76.30554,3.488159,11.72791,14.33333,7.55,-1.225,1
170813,-0.02539063,0.8071288999999999,0.1381836,8.666992,-4.516602,-3.540039,77.24487,1.878662,12.73865,16.24167,-0.225,-2.558333,1
171123,0.2163086,1.083496,0.4707031,-2.441406,16.41846,-41.3208,77.65137,1.983032,8.87146,19.40833,5.9,-0.9416667,1
171353,0.06445313,0.7065429999999999,0.1879883,7.141113,-2.258301,18.55469,76.53625,3.746338,6.844482,14.90833,0.7583333,-1.525,1
171543,0.04150391,0.9023437999999999,0.234375,-3.051758,14.09912,-21.78955,75.44861,4.240723,9.244995,25.10833,1.391667,1.133333,1
171753,0.08203125,0.8037109,0.4726563,-5.493164,-8.850098,21.11816,76.46484,2.04895,10.83801,19.05833,4.258333,-0.2666667,1
171963,-0.1484375,0.8325195,0.19042969999999998,7.324219,-23.98682,-14.46533,76.5033,1.395264,10.66223,14.56667,1.658333,-1.266667,1
172183,-0.1928711,0.9907227,0.1875,-2.990723,-43.76221,17.51709,74.00391,-0.8624267999999999,5.317383,24.38333,4.641667,2.575,1
172393,0.1616211,0.8417969,0.2636719,-4.455566,-2.13623,17.76123,75.73975,3.790283,-1.219482,-2.841667,-29.14167,-63.0,1
172693,-0.1796875,1.106445,0.1757813,16.96777,25.87891,-6.530762,74.39941,3.35083,4.784546,19.95,7.458333,0.7083332999999999,1
172973,0.09130859,0.9448242,0.4931641,-11.35254,34.66797,30.70068,75.39368,-0.5987549,8.179321,11.36667,5.075,-1.141667,1
173183,0.0009765625,0.8286133,0.11083979999999999,7.019043,2.380371,-1.037598,75.16296,1.027222,10.00854,15.76667,-0.7583333,-1.616667,1
173413,0.01269531,0.9038086,0.4492188,-8.300781,-0.8544921999999999,-35.46143,76.10229,1.856689,7.053223,0.9666665999999999,-29.175,-61.2,1
173683,-0.05322266,0.9394530999999999,0.01660156,-14.34326,1.6479489999999999,-7.324219,76.20117,2.241211,6.124878,0.8333332999999999,-29.33333,-60.68333,1
173973,-0.11621089999999999,1.465332,0.2924805,19.89746,-9.94873,28.13721,75.59143,3.729858,8.33313,12.13333,7.908333,-2.508333,1
174213,-0.06201172,0.8784179999999999,0.1464844,1.159668,-9.521484,-9.216309,75.27832,0.8184813999999999,9.442749,15.63333,0.7583333,-1.691667,1
174493,0.14306639999999998,1.312012,0.4624023,-2.929688,-6.835938,-36.37695,75.64087,0.2526855,6.998291,-0.31666669999999997,-29.175,-60.5,1
174783,0.04833984,0.7680663999999999,0.2875977,3.417969,-1.037598,6.530762,76.23413,3.164063,2.521362,15.00833,2.525,-0.2,1
175043,-0.2797852,1.242676,0.11669919999999999,21.30127,19.53125,-2.01416,74.79492,4.136353,5.570068,17.4,7.6,-2.425,1
175353,-0.19384769999999998,0.7041016,0.2470703,8.728026999999999,18.43262,-21.24023,74.34998,-0.46691889999999997,10.32715,14.2,2.025,0.65,1
175583,-0.19726559999999999,0.9086913999999999,0.005371094000000001,-12.02393,-18.12744,20.44678,74.58069,-0.302124,10.76111,22.025,1.65,4.05,1
175773,0.1054688,0.9702147999999999,0.4604492,2.258301,7.385254,-39.61182,75.89905,1.933594,6.888428,19.30833,5.391667,0.8666667,1
175993,0.1054688,0.7421875,0.2089844,10.19287,-3.845215,20.44678,76.1792,3.186035,3.323364,15.00833,0.8166667,-0.775,1
176193,0.13525389999999998,0.9624022999999999,0.25,-2.197266,19.47021,-20.01953,75.50354,3.647461,4.570313,24.98333,1.85,1.591667,1
176413,-0.05615234,1.083984,0.24462889999999998,-14.46533,8.361816,-0.24414059999999999,76.00342,-1.6149900000000001,8.311157,-0.125,-28.34167,-61.49166,1
176693,-0.08984375,0.8520508,0.04150391,-5.126953,-11.84082,13.85498,75.23438,0.7470703,6.685181,19.04167,3.725,1.341667,1
176903,-0.22949219999999998,0.8618163999999999,0.39697269999999996,-8.422852,-28.80859,-27.89307,76.44287,3.449707,1.027222,-1.108333,-28.39167,-62.11666,1
177153,-0.02001953,0.8642578,0.14257809999999999,-3.112793,18.24951,9.460449,77.07458,2.010498,0.27465819999999996,14.425,0.2083333,-2.025,1
177433,-0.07666016,0.996582,0.4960938,1.708984,1.6479489999999999,29.1748,77.10754,2.213745,8.959351,2.366667,-29.58333,-59.675,1
177703,-0.001464844,0.8154296999999999,0.1113281,-8.666992,-12.3291,5.371094,76.42639,1.241455,10.66223,2.825,-29.11667,-59.64167,1
177993,-0.140625,1.390137,0.005859375,27.9541,-35.27832,-29.47998,76.23413,-0.2142334,5.762329,14.21667,8.191667,-1.075,1
178243,0.19775389999999998,0.8198242,0.20947269999999998,13.73291,13.42773,26.24512,76.62964,2.713623,-1.790771,-1.566667,-28.4,-60.875,1
178523,-0.1098633,1.411133,0.21728519999999998,11.77979,26.97754,23.80371,77.21191,3.630981,8.245239,3.175,-29.08333,-58.45,1
178823,-0.1601563,0.9736328,0.269043,-17.27295,12.02393,-7.568359,76.55823,-0.4504395,13.54614,14.325,2.516667,0.09166667,1
179063,0.2670898,0.9711913999999999,0.2792969,14.22119,-22.58301,4.272461,73.71826,-0.4394531,9.382324,0.8250000000000001,-28.90833,-59.125,1
180353,0.18603519999999998,1.135742,0.4560547,-5.249023,-3.356934,-52.30713,78.37097,1.604004,-8.959351,22.69167,4.366667,-0.5166666999999999,1
180623,0.04833984,0.7602538999999999,0.1992188,3.234863,-12.08496,24.96338,78.53577,2.471924,-11.73889,15.425,0.75,-0.6416666999999999,1
180813,0.1796875,0.9135742,0.1484375,-2.868652,34.36279,-16.23535,76.45935,2.120361,-9.695435,22.26667,2.425,0.375,1
181023,-0.08203125,0.9536133,0.42822269999999996,4.394531,25.63477,28.44238,78.38745,1.219482,-3.328857,20.85,4.116667,1.7083329999999999,1
181243,-0.1118164,0.859375,0.04638672,-2.319336,8.666992,6.774902,77.57996,1.560059,3.652954,-1.05,-29.05,-57.88334,1
181483,-0.2719727,1.309082,0.005371094000000001,27.89307,-30.51758,-24.4751,77.66235,0.01098633,2.900391,13.76667,6.491667,-0.05,1
181733,0.1801758,0.7846679999999999,0.1523438,0.6103516,-8.666992,21.30127,79.11255,2.543335,-3.988037,-3.916667,-29.16667,-58.39167,1
181973,-0.015136720000000001,1.078613,0.190918,-4.760742,32.4707,-12.3291,76.57471,3.691406,-0.9008788999999999,22.575,2.608333,2.9,1
182243,-0.02734375,0.8598633,0.3051758,-11.04736,45.59326,34.24072,77.71179,0.8404541,6.157837,20.05833,3.475,-1.15,1
182453,-0.140625,0.8706054999999999,0.1381836,-1.89209,-2.441406,-16.05225,77.23389,1.356812,13.00781,14.55833,0.5166666999999999,-1.35,1
182673,-0.04296875,1.427246,0.18603519999999998,26.85547,-16.8457,-31.49414,77.51404,0.1208496,8.898926,15.26667,8.3,-2.583333,1
182953,0.03515625,0.8662109,0.1523438,20.50781,9.460449,10.62012,76.56921,3.702393,8.074951,3.675,-26.66667,-58.50834,1
183213,-0.18164059999999999,1.226563,0.1567383,19.71436,-0.6713867,6.652832,76.34949,5.663452,10.38208,18.38333,6.183333,-1.125,1
183493,-0.2104492,0.7514647999999999,0.2202148,4.943848,4.394531,-24.59717,76.53625,1.071167,13.47473,4.475,-27.06667,-58.61666,1
183763,-0.02001953,1.384277,-0.01855469,24.71924,-32.71484,-30.27344,76.45386,0.005493164,6.838989,0.5916667,-27.14167,-60.225,1
184043,0.2324219,1.084473,0.3007813,-4.394531,0.0,0.4882813,76.99219,4.702148,3.581543,13.66667,2.875,2.241667,1
184283,0.02001953,1.035156,0.1962891,-1.220703,24.53613,-7.751465,75.90454,4.279175,7.646484,3.666667,-27.05,-60.04167,1
184623,-0.2026367,0.6816405999999999,0.2338867,-5.981445,4.02832,-27.9541,75.71777,-0.3515625,13.49121,13.75833,1.791667,0.5416667,1
184853,-0.144043,0.8339844,0.02978516,-2.380371,-16.29639,17.76123,75.41565,0.6591796999999999,11.37634,22.59167,0.06666667,2.925,1
185043,-0.1000977,0.9560546999999999,0.49658199999999997,-9.338379,9.338379,-28.01514,76.88232,3.191528,8.305664,16.61667,5.183333,-0.6000000000000001,1
185253,0.09619141,0.7216796999999999,0.1870117,9.460449,-10.80322,11.90186,75.17944,4.235229,4.713135,16.85833,0.625,-1.358333,1
185473,-0.25537109999999996,1.427734,0.3378906,9.58252,-1.89209,24.41406,76.11328,3.7683109999999997,7.503662,2.058333,-28.15833,-61.20833,1
185703,-0.1298828,0.8081054999999999,0.24902339999999998,-12.93945,15.56396,-11.90186,75.13,0.1098633,11.59607,14.54167,2.016667,0.7000000000000001,1
185953,0.1533203,1.133789,0.2666016,30.57861,-16.29639,-10.68115,73.11951,-1.010742,8.85498,0.2833333,-28.21667,-62.35,1
186203,0.05126953,1.232422,0.2915039,12.75635,-24.35303,0.0,74.99268000000001,4.11438,5.278931,12.3,3.333333,2.225,1
186473,-0.01660156,0.8852538999999999,0.1132813,-15.25879,17.02881,-1.525879,76.10779,2.675171,7.437744,15.65,3.608333,-0.2583333,1
186683,-0.1474609,1.317383,0.31054689999999996,5.432129,20.87402,20.38574,76.67358,3.757324,14.15039,13.75,6.708333,-2.783333,1
186913,-0.04833984,0.8266602,0.1040039,-2.441406,-8.728026999999999,-9.58252,77.02515,1.433716,21.31348,14.88333,-0.775,-2.008333,1
187183,0.1948242,1.097656,0.559082,-2.685547,9.155273,-44.98291,76.63513,0.9338379,15.35339,6.308333,-30.0,-58.98333,1
187443,0.07128906,0.7705078,0.19384769999999998,16.41846,25.14648,22.15576,76.98669,3.114624,15.65552,14.83333,1.525,-2.975,1
187713,-0.08105469,1.34375,0.1416016,-6.164551,30.63965,10.68115,75.43762,4.828491,24.505,13.65,7.45,-0.8416665999999999,1
187993,-0.16601559999999999,0.796875,0.1923828,8.178711,-4.699707,-17.08984,74.86633,2.015991,30.54749,13.19167,-29.975,-54.96667,1
188293,0.015625,1.483398,0.4169922,11.04736,-20.1416,-41.25977,75.44312,0.2966309,25.29602,10.78333,-30.43333,-56.31667,1
188573,0.08203125,0.7558594,0.2885742,2.990723,18.85986,16.05225,75.94299,3.9935300000000002,23.26904,15.56667,2.183333,0.9333332999999999,1
188853,-0.2612305,1.043457,0.2041016,20.62988,15.01465,-2.13623,75.39368,4.702148,28.19092,19.35833,7.691667,-0.4666667,1
189103,-0.22119139999999998,0.7729492,0.24560549999999998,-0.06103516,6.835938,-22.88818,75.95947,0.43396,35.5957,14.59167,-31.78333,-51.28333,1
189333,-0.11621089999999999,0.8837891,-0.026367190000000002,-19.40918,-14.16016,15.74707,74.06433,0.4174805,33.76099,21.58333,3.0,5.6,1
189583,-0.1420898,1.223145,0.3217773,12.51221,-23.55957,-7.629395,76.30554,4.822998,27.54272,13.89167,-30.55833,-53.825,1
189813,-0.07324219,0.9580078,0.04003906,-9.70459,12.39014,-6.408691,77.4646,2.581787,29.0094,16.55,2.608333,-0.3083333,1
190083,-0.15039059999999999,1.245605,0.2519531,14.4043,11.23047,28.32031,76.94824,3.78479,33.08533,13.08333,7.033333,-4.475,1
190303,-0.15478519999999998,0.9609375,0.23291019999999998,-14.83154,16.29639,-8.544922,76.61316,-0.45593259999999997,39.51233,15.2,1.483333,0.225,1
190523,0.09375000000000001,1.055664,0.3066406,-5.371094,-13.91602,9.155273,73.77319,-0.8789062999999999,38.18298,14.45,-32.675,-50.15833,1
190773,-0.09765625,0.9628905999999999,0.4936523,0.7324219,-14.95361,-38.87939,75.98694,4.075928,35.22217,12.5,3.475,-0.375,1
191003,0.08154297,0.7768554999999999,0.08984375,-1.8310549999999999,17.45605,-17.63916,75.62988,3.526611,35.79895,17.46667,-30.89167,-49.35,1
191253,0.01660156,0.9550780999999999,0.3930664,-3.417969,9.70459,29.96826,77.17346,1.593018,38.67737,20.76667,3.683333,1.35,1
191533,-0.07373047,0.8632812999999999,0.0703125,-11.47461,-7.69043,11.1084,75.34973,0.8679199,42.06665,15.85833,-32.725,-48.125,1
191803,-0.22216799999999998,0.8735352,0.42626949999999997,-17.21191,-20.20264,-43.21289,75.27283,3.6804200000000002,34.93652,16.59167,-30.91667,-50.54167,1
192113,-0.02978516,0.8769530999999999,0.1254883,-2.197266,19.47021,9.765625,76.45935,1.82373,34.837650000000004,13.88333,-0.04166667,-1.875,1
192353,-0.13134769999999998,1.312012,0.001464844,19.34814,24.90234,10.68115,75.14099,4.004517,40.21545,17.11667,9.6,-0.7083332999999999,1
192593,-0.1293945,0.7182617,0.1992188,8.911133,-0.06103516,-16.47949,74.6521,0.6317138999999999,46.32385,13.5,1.791667,-1.083333,1
192833,-0.002929688,1.388184,0.409668,15.50293,-28.07617,-35.5835,74.81689,-0.19226069999999998,40.03418,16.08333,-32.24166,-48.31667,1
193153,-0.03271484,0.8852538999999999,0.12451169999999999,-3.417969,15.25879,8.605957,76.65161,2.136841,37.1228,16.70833,-31.31667,-48.89167,1
193403,-0.1567383,1.246094,0.1401367,20.32471,24.78027,2.319336,75.12451,4.718628,40.47913,17.06667,7.716667,-2.5,1
193593,-0.1357422,1.23877,0.2929688,5.67627,27.52686,19.9585,75.11353,-0.2197266,43.94531,12.21667,3.533333,1.291667,1
193813,-0.22949219999999998,0.9423828,0.09863281,-7.324219,-27.40479,20.1416,73.08105,-0.9118651999999999,40.69336,14.03333,-32.60833,-48.71667,1
194043,0.005371094000000001,0.7841796999999999,0.3520508,-9.216309,-6.652832,-55.96924,74.88281,3.47168,36.3208,15.175,5.758333,-0.4666667,1
194323,-0.01171875,0.9228516,0.1762695,9.70459,16.90674,17.82227,76.71753,2.197266,37.15576,16.25,0.55,-2.666667,1
194723,0.15625,1.047852,0.4941406,-6.347656,47.36328,39.61182,75.47058,-1.038208,44.79675,11.48333,4.383333,0.85,1
194933,0.04394531,0.7221679999999999,0.152832,-11.59668,-10.74219,0.9155272999999999,75.3772,0.8569336,43.9563,14.55,0.40833329999999995,-1.366667,1
196153,0.1054688,1.262695,0.09814453000000001,49.43848,8.544922,-23.55957,74.09729,-1.625977,43.797,17.125,-33.83333,-44.61666,1
196413,0.13134769999999998,1.287598,0.2592773,9.399414,-36.01074,1.525879,76.23962,4.191284,38.55103,14.075,2.883333,2.7,1
196653,0.02392578,0.9780272999999999,0.1777344,-9.58252,31.06689,-15.07568,74.80591,4.064941,41.96228,22.36667,5.316667,1.141667,1
196963,-0.17822269999999998,0.9038086,0.2666016,-11.65771,-2.380371,0.24414059999999999,75.48157,-0.1263428,46.72485,19.24167,-33.2,-43.39167,1
197263,0.1689453,1.108398,0.2753906,12.20703,-22.2168,3.90625,74.11377,-1.433716,40.94055,16.60833,-33.39167,-46.21667,1
197533,-0.2504883,1.081055,0.4130859,7.93457,-26.55029,-26.55029,75.68481,4.180298,36.17249,13.175,3.541667,2.141667,1
197783,0.08056641,0.8896484,0.1337891,-4.394531,29.35791,-17.15088,75.31128,3.510132,39.47937,21.08333,-30.86667,-44.75834,1
198083,-0.1699219,1.121094,0.23339839999999998,-8.300781,7.446289,7.873535,75.82764,-0.6152344,45.92285,19.46667,-33.34167,-43.15833,1
198393,-0.1577148,1.03418,0.2397461,2.563477,-36.19385,13.97705,73.69629,-1.367798,41.00647,23.01667,4.933333,1.766667,1
198623,-0.14697269999999998,0.8393554999999999,0.3935547,-11.1084,-27.40479,-37.10938,76.02539,3.592529,37.74902,14.01667,3.966667,1.3333329999999999,1
198853,0.03320313,0.7739258,-0.03515625,-16.17432,25.81787,-14.22119,76.51978,3.273926,37.97974,20.83333,-31.14167,-45.43333,1
199113,0.008789063,0.9677734,0.39599609999999996,-6.408691,-1.953125,23.86475,77.7832,1.241455,39.72656,19.9,4.233333,1.658333,1
199353,-0.21337889999999998,0.8325195,0.1572266,11.47461,6.835938,-13.73291,76.89331,0.2142334,44.70337,14.65833,1.075,-0.31666669999999997,1
199563,-0.31005859999999996,1.005371,0.1079102,0.6713867,-30.70068,20.26367,74.92126,-1.71936,43.41797,23.71667,4.891667,1.258333,1
199783,0.20605469999999998,0.8574219,0.2348633,-0.1831055,9.277344,11.77979,76.54175,2.9827879999999998,36.72729,19.35,-31.59167,-46.50834,1
200070,-0.2695313,1.081543,0.159668,24.59717,11.1084,2.075195,75.06409,4.367065,41.89636,21.98333,-30.79167,-43.85833,1
200333,0.1303711,0.9819336,0.47460939999999996,-11.71875,35.09521,30.70068,74.98169,0.0604248,45.36255,12.5,4.333333,0.7666666999999999,1
200573,-0.01464844,0.8095703,0.1435547,-6.530762,-23.92578,-6.408691,74.66309,1.642456,43.45642,14.54167,0.2916667,-2.091667,1
200803,0.1772461,1.004883,0.5888671999999999,-1.89209,-9.094238,-41.50391,75.25085,1.312866,34.75525,18.375,-30.475,-48.66667,1
201073,-0.015625,0.859375,-0.0004882813,-15.625,22.15576,-1.098633,76.0144,1.422729,32.8656,17.75833,-31.49167,-47.90833,1
201363,-0.1879883,1.28125,0.284668,7.019043,13.48877,26.48926,75.68481,2.872925,38.24341,12.71667,7.825,-3.083333,1
201613,-0.0703125,0.8388671999999999,0.1357422,-4.760742,-13.48877,-6.164551,75.88257,0.8459473,43.92334,19.91667,-33.53333,-42.875,1
201883,0.07226563,1.170898,0.39599609999999996,4.760742,-10.37598,-39.12354,75.90454,0.0769043,38.0896,19.35833,-33.10833,-44.9,1
202193,0.1201172,0.7534179999999999,0.2304688,10.68115,2.563477,22.58301,76.39343,3.696899,34.10706,14.525,1.375,-2.341667,1
202433,-0.1884766,1.398438,0.01171875,3.662109,34.36279,15.86914,75.36621,3.922119,40.57251,14.3,6.716667,-1.941667,1
202743,-0.1831055,0.8012695,0.1835938,13.91602,-2.441406,-21.97266,75.76172,0.3900146,45.29114,14.81667,1.158333,0.1333333,1
202983,-0.32519529999999996,1.024414,0.15039059999999999,-0.6713867,-41.62598,11.23047,74.54773,-1.120605,42.80273,22.4,5.791667,1.041667,1
203203,0.1176758,0.8393554999999999,0.24853519999999998,4.272461,2.258301,12.02393,76.95923,4.822998,35.936280000000004,23.4,-31.825,-45.31667,1
203433,-0.02685547,0.8447266,-0.05175781,-14.83154,9.094238,-15.68604,75.82764,3.306885,37.2052,18.69167,1.808333,2.966667,1
203683,0.1484375,0.9326171999999999,0.46875000000000006,-18.06641,21.1792,31.92139,75.28931,0.39550779999999996,39.44641,21.74167,-33.70833,-45.05833,1
203913,0.04931641,0.8286133,0.1074219,-6.835938,-21.66748,-3.967285,75.10254,1.296387,38.19397,14.925,-0.008333334000000001,-2.425,1
204203,0.15039059999999999,1.146484,0.2519531,21.3623,-4.455566,-11.59668,72.92725,-1.203003,35.0354,17.33333,10.1,-0.6416666999999999,1
204413,-0.07226563,1.286621,0.2915039,19.28711,-12.87842,-2.563477,74.68506000000001,3.944092,30.72876,11.79167,3.316667,1.716667,1
204633,0.1176758,0.8627929999999999,0.1567383,-3.112793,36.37695,-18.9209,75.09705,3.076172,32.97546,22.33333,1.891667,-0.24166669999999998,1
204893,0.12255859999999999,0.8583984,0.390625,-13.00049,6.774902,40.40527,76.13525,0.4394531,36.8042,18.55833,3.725,-1.15,1
205113,-0.08349609,0.8505859,0.09082031,-10.80322,-1.708984,18.49365,74.729,0.3515625,40.06165,17.28333,3.833333,-0.275,1
205423,-0.159668,0.8930663999999999,0.4536133,-12.3291,-26.42822,-40.83252,75.65186,4.026489,34.6344,20.51667,-30.75833,-48.775,1
205723,0.020996090000000002,0.8286133,-0.008300781,-12.39014,28.13721,-4.394531,75.20142,2.785034,36.79871,21.21667,-30.86667,-46.71667,1
206003,-0.3076172,1.203125,0.48876949999999997,1.586914,-11.65771,39.24561,76.12427,2.631226,41.4624,16.95,7.45,-0.6166667,1
206243,-0.0004882813,0.7666016,0.1655273,-10.62012,-18.43262,-3.173828,76.03088,1.290894,43.78052,18.95,-32.69167,-43.89167,1
206543,0.1601563,1.024414,0.53125,0.9155272999999999,12.87842,-53.6499,75.88806,1.999512,38.31482,20.8,5.1,-1.35,1
206883,0.002441406,0.8940429999999999,0.09814453000000001,-21.78955,19.77539,0.7324219,75.58044,2.037964,38.86963,16.36667,3.383333,0.6166667,1
207083,-0.1279297,1.3095700000000001,0.31005859999999996,17.51709,15.86914,23.07129,74.80042,3.751831,44.58252,13.10833,6.775,-1.8333329999999999,1
207313,-0.01074219,0.8676758,0.1533203,-5.187988,-24.23096,-8.239746,76.67358,0.9832763999999999,46.70837,19.25,-32.84167,-41.89167,1
207543,0.06542969,1.01416,0.2651367,5.004883,-25.75684,2.01416,74.70703,-1.472168,42.17102,21.35,7.0,-0.08333334,1
207813,-0.18994139999999998,1.052246,0.4677734,1.953125,-28.56445,-31.98242,76.15723,3.977051,37.76001,13.375,4.291667,-0.55,1
208033,0.08447266,0.8388671999999999,-0.02001953,-12.93945,29.66309,-9.277344,74.37195,2.70813,37.96326,20.125,-30.96667,-47.10833,1
208273,0.0078125,0.9614258,0.3867188,-6.04248,-20.56885,31.06689,75.55298,1.972046,41.40747,18.975,6.741667,0.5416667,1
208543,-0.05517578,0.7919921999999999,0.1474609,1.6479489999999999,-8.239746,4.211426,75.6958,0.5218505999999999,44.8407,19.01667,-34.55833,-43.71667,1
208793,-0.1630859,1.239746,-0.06787109,28.68652,-31.31104,-25.14648,75.55847,-1.137085,41.85242,15.375,7.783333,-0.6166667,1
209033,0.2539063,1.095703,0.2890625,-1.89209,-9.643555,4.699707,76.75598,4.476929,36.91406,13.725,2.75,0.8166667,1
209263,0.02148438,0.9916992,0.1962891,5.371094,32.65381,-8.483887,74.71252,3.938599,41.715090000000004,22.28333,-32.875,-43.11666,1
209533,-0.1523438,0.7973633,0.2807617,-4.943848,3.417969,-18.9209,76.10229,-0.9283446999999999,48.20251,19.875,-36.075,-40.76667,1
209833,-0.08544922,0.8842772999999999,-0.004394531,-18.18848,-18.73779,17.8833,75.34973,-0.01098633,45.68665,17.35833,4.4,2.358333,1
210073,-0.2563477,1.214844,0.4052734,2.746582,-28.25928,-28.9917,75.67383,4.932861,37.64465,21.23333,-32.30833,-46.225,1
210343,0.08740234,0.8383788999999999,0.078125,-16.41846,34.17969,-11.04736,73.97095,3.521118,41.20972,22.30833,-32.56667,-44.075,1
210653,-0.02001953,0.8647461,0.4521484,-4.272461,-0.06103516,39.12354,75.73425,1.51062,44.53308,20.2,4.083333,-0.65,1
210893,-0.06298828000000001,0.8500977,0.04785156,-4.150391,-21.05713,9.58252,75.82764,1.159058,43.86841,16.76667,3.325,0.4583333,1
211213,-0.2148438,0.9106445,0.42773439999999996,-14.09912,-32.89795,-43.02979,76.53076,4.400024,35.89233,14.7,4.283333,-0.09166667,1
212413,0.17480469999999998,1.113281,0.3037109,-5.67627,-10.49805,0.6103516,76.07483,5.075684,29.6521,14.55833,2.95,2.308333,1
212643,-0.03125,0.9077147999999999,0.03173828,-21.72852,13.91602,-4.699707,76.23413,2.5872800000000002,32.02515,17.625,3.391667,0.6833332999999999,1
212853,-0.1079102,1.289551,0.3618164,9.094238,-2.01416,31.61621,76.09131000000001,3.6859129999999998,36.11206,14.075,8.191667,-3.058333,1
213073,0.01953125,0.8388671999999999,0.1098633,-0.06103516,-16.35742,-9.216309,75.69031,0.9997558999999999,38.23242,20.275,-34.11666,-45.73333,1
213313,0.1850586,1.092285,0.22167969999999998,24.41406,-6.286621,-8.178711,73.57544,-1.329346,35.30457,16.775,8.883333,-0.44166669999999997,1
213553,0.05859375,0.7690429999999999,0.2275391,15.13672,7.385254,13.61084,76.81641,3.55957,29.92126,20.43333,-32.30833,-48.55,1
213803,0.09716797,0.7929687999999999,0.08789063,-15.19775,32.40967,-17.21191,75.20691,3.010254,33.68958,23.325,1.05,0.48333329999999997,1
214073,0.159668,0.9335937999999999,0.49902339999999995,-4.638672,-10.19287,28.44238,76.77795,1.087646,35.01343,19.93333,4.925,0.7916667,1
214283,-0.14697269999999998,0.7363280999999999,0.18164059999999999,5.187988,1.8310549999999999,-23.07129,75.22339,-0.40649409999999997,38.39722,14.30833,0.9916666999999999,-0.1166667,1
214503,-0.2421875,1.35791,0.2875977,15.625,-18.00537,-44.43359,76.13525,-0.7196045,36.49658,13.84167,6.416667,-2.208333,1
214783,0.0034179690000000003,0.9331054999999999,0.1459961,14.5874,2.441406,12.63428,76.63513,2.719116,32.28333,20.51667,-32.575,-48.575,1
215043,-0.08300781,1.081543,0.2001953,28.62549,16.54053,2.990723,75.38818,4.081421,34.34875,17.725,6.808333,0.7333333,1
215293,-0.2338867,0.6875,0.2304688,-4.882813,-1.464844,-28.44238,75.36072,-0.6646729,37.10083,19.43333,-34.025,-47.25834,1
215593,-0.105957,1.254883,-0.024902340000000002,23.13232,-22.58301,-30.88379,75.88806,-1.307373,33.93127,18.225,-34.38334,-48.425,1
215873,0.1230469,1.07959,0.2875977,-3.417969,-15.74707,-0.9155272999999999,75.99792,4.356079,30.17395,13.5,2.883333,2.516667,1
216113,0.08154297,1.033203,0.24121089999999998,-1.464844,29.78516,-14.64844,74.79492,4.163818,31.69006,21.08333,-32.11666,-48.09167,1
216453,-0.09521484000000001,0.8505859,0.2915039,-22.70508,18.37158,-10.0708,75.10254,-0.40649409999999997,37.54028,13.95833,2.533333,0.2333333,1
216663,-0.05908203,0.8339844,-0.01269531,-23.55957,-12.75635,13.79395,73.61389,0.7086182,37.73804,17.85833,3.533333,4.575,1
216873,0.184082,1.156738,0.5332030999999999,5.432129,3.4790039999999998,-49.49951,76.19568,1.472168,33.57422,21.225,5.408333,1.05,1
217083,0.09277344,0.7797852,0.1953125,16.60156,5.92041,17.08984,77.08557,2.774048,30.74524,14.05,1.266667,-1.141667,1
217303,-0.1489258,1.452148,0.1542969,14.28223,10.0708,25.75684,76.67908,3.872681,36.63391,20.45833,-33.75834,-45.525,1
217533,0.0234375,1.124512,0.27001949999999997,-6.896973,10.98633,21.78955,75.6958,-0.9887695,40.14404,13.06667,3.025,0.6833332999999999,1
217793,-0.17431639999999998,1.069336,0.2758789,2.929688,-30.88379,14.4043,73.8446,-1.252441,38.85864,17.48333,-35.4,-46.13334,1
218033,-0.15869139999999998,0.9277344,0.4243164,-7.568359,-30.33447,-39.97803,76.10229,2.922363,33.44788,13.5,4.241667,0.24166669999999998,1
218303,-0.046875,0.8955078,0.1054688,-2.563477,28.07617,18.31055,77.00867,1.82373,33.51379,14.96667,-0.375,-2.033333,1
218533,-0.1757813,1.149902,0.3208008,-8.178711,-0.12207029999999999,26.97754,76.32202,2.801514,40.17151,20.41667,-34.68333,-43.65,1
218803,-0.01806641,0.7885742,0.140625,4.577637,-11.77979,-5.249023,75.60791,1.516113,42.4292,20.20833,-34.8,-43.26667,1
219093,0.02050781,1.182129,0.08886719,36.92627,2.685547,-21.85059,74.39941,-0.8459473,39.23218,16.5,9.3,-0.8083332999999999,1
219333,0.1401367,0.7529296999999999,0.2036133,19.40918,1.403809,22.76611,76.67908,2.955322,32.948,14.96667,1.35,-2.291667,1
219623,-0.11474609999999999,1.469238,0.2670898,6.713867,11.1084,23.01025,75.6958,3.35083,38.56201,20.45833,-33.80833,-44.49166,1
219893,-0.1401367,1.072754,0.2592773,1.098633,16.35742,19.04297,74.54773,-0.6756592,43.30261,14.46667,2.908333,1.575,1
220163,-0.19775389999999998,1.051758,0.2724609,3.90625,-33.08105,14.64844,72.93823,-1.658936,42.79724,21.58333,6.008333,2.183333,1
220473,0.184082,0.8706054999999999,0.269043,6.164551,18.12744,13.91602,76.20117,3.03772,36.89758,15.41667,2.075,-1.675,1
220703,0.015136720000000001,0.8344727,0.01025391,-15.99121,35.27832,-8.728026999999999,74.95972,1.955566,41.70959,19.30833,3.066667,3.316667,1
220893,-0.03564453,1.02832,0.3837891,1.037598,-6.530762,24.41406,76.23962,2.554321,45.98877,19.85,7.05,-0.2666667,1
221103,-0.1884766,0.7583008,0.2236328,3.723145,-0.8544921999999999,-31.55518,74.89929,0.9393311,49.32861,12.69167,2.275,-0.2833333,1
221313,-0.21875000000000003,0.9506836,0.144043,-3.417969,-20.1416,20.99609,73.15796,0.1812744,46.81274,23.14167,1.933333,1.725,1
221533,0.2109375,1.047852,0.2895508,-2.075195,-3.78418,2.990723,75.22888,3.488159,40.44067,21.23333,-33.55,-43.53333,1
221773,-0.008300781,0.9389647999999999,0.03222656,-16.47949,17.15088,-0.1831055,75.57495,1.664429,42.20398,17.675,2.991667,1.341667,1
222033,0.10058589999999999,0.8813477,0.4541016,-22.58301,58.53271,35.5835,75.04211,-0.8294678,51.58081,13.725,4.75,-1.041667,1
222323,-0.02587891,0.7915038999999999,0.14257809999999999,1.342773,12.3291,3.173828,75.28381,0.5163574,56.93665,13.09167,0.05,-1.416667,1
222533,0.02832031,1.158691,0.09130859,29.54102,-2.929688,-9.94873,75.14099,-1.483154,57.32666,16.14167,7.041667,-1.741667,1
222763,0.12060549999999999,0.7973633,0.19726559999999999,13.06152,12.26807,23.92578,76.40442,2.449951,53.91541,21.96667,-36.825,-33.93333,1
223033,-0.04638672,1.368652,0.1635742,10.25391,29.78516,12.20703,75.84412,4.108887,61.44653,23.29167,-36.65,-29.70833,1
223333,-0.2036133,0.8828125,0.2900391,-8.972168,2.258301,-6.774902,75.19043,0.5328369,66.71448,14.44167,2.633333,-0.5166666999999999,1
223563,0.04150391,1.024902,0.2895508,5.493164,-29.78516,8.239746,72.91077,-0.3570557,62.90771,19.56667,7.1,0.3833333,1
223843,0.08740234,0.7739258,0.24902339999999998,19.34814,14.70947,14.70947,76.15723,3.971558,56.31042,23.30833,-36.24166,-32.38334,1
224153,0.07226563,0.8481445,0.03564453,-11.90186,38.20801,-12.39014,75.72876,3.098145,61.3147,21.90833,-0.17500000000000002,-0.05,1
224393,-0.42041019999999996,1.28418,0.28662109999999996,11.77979,43.396,24.6582,75.62988,0.9283446999999999,72.21863,15.175,3.491667,0.975,1
224713,-0.2246094,0.9155272999999999,0.1230469,0.24414059999999999,-36.74316,19.04297,73.49854,1.038208,68.7085,23.06667,3.158333,2.616667,1
224933,-0.048828130000000004,0.8911133,0.3544922,5.187988,-25.81787,-46.56982,76.08582,3.3673100000000002,63.22632,16.35833,5.591667,-0.7083332999999999,1
225123,0.06787109,0.8725586,0.19042969999999998,6.347656,-3.967285,16.17432,76.75049,2.872925,58.83728,14.71667,-0.325,-1.066667,1
225333,0.04833984,1.088379,0.18164059999999999,10.74219,17.33398,-17.63916,75.55298,3.872681,59.82056,23.81667,4.075,0.48333329999999997,1
225543,-0.03857422,0.8061522999999999,0.4145508,-27.89307,44.98291,29.35791,76.15723,1.164551,64.22058,15.76667,4.558333,-1.966667,1
225773,-0.1357422,0.9521484,0.05566406,-12.3291,-6.9580079999999995,11.41357,74.8114,1.208496,69.95544,20.71667,-40.75834,-26.86667,1
226003,-0.03857422,1.405273,0.2817383,24.96338,-30.94482,-28.13721,75.68481,-0.01098633,65.86304,14.88333,7.558333,-1.566667,1
226253,0.04638672,0.8959961,0.171875,0.5493163999999999,19.83643,22.46094,76.81091,1.796265,65.12695,22.19167,-39.03333,-27.19167,1
226493,-0.1923828,0.9721679999999999,0.1806641,-2.380371,28.07617,-4.577637,74.8938,3.619995,70.45532,22.71667,3.375,0.875,1
226763,-0.011230470000000001,0.765625,0.4023438,-22.3999,40.16113,28.01514,75.58044,0.9942626999999999,76.51428,15.38333,4.675,-2.25,1
227983,-0.07324219,0.7324219,0.2714844,1.525879,46.26465,-10.25391,74.26758,-0.01647949,71.97144,20.63333,-41.73333,-24.45833,1
228283,-0.29394529999999996,1.225098,-0.1879883,35.03418,-18.24951,-8.422852,76.55273,-0.302124,77.50854,19.575,-42.83333,-20.49167,1
228543,0.3369141,1.193359,0.2763672,-12.81738,-23.98682,2.990723,76.4209,3.647461,70.3894,14.43333,3.175,0.7583333,1
228793,-0.09375000000000001,1.058105,0.17480469999999998,0.8544921999999999,34.30176,-17.15088,73.66882,3.087158,75.99792,22.24167,-39.825,-21.75833,1
229093,-0.07714844,0.887207,0.315918,-9.399414,4.211426,-20.87402,75.33325,-0.33508299999999996,83.07312,11.866670000000001,3.533333,-0.075,1
229403,0.05224609,1.161133,0.1772461,19.04297,-24.41406,-8.300781,74.87732,-0.1483154,77.67883,19.48333,-42.80833,-21.30833,1
229703,0.03271484,0.8676758,0.2539063,-5.92041,-3.540039,18.67676,76.0199,3.78479,66.2915,23.15,-38.68333,-27.24167,1
230013,-0.01367188,1.037109,0.1757813,14.83154,7.019043,-16.47949,73.63586,3.015747,66.14319,21.30833,6.35,0.45,1
230243,0.18603519999999998,0.8251953,0.4555664,-11.04736,-5.187988,26.9165,75.11902,0.5163574,63.88,13.95833,5.008333,-1.691667,1
230473,-0.09863281,0.8676758,0.0234375,-9.399414,-5.493164,17.94434,73.96545,0.4998779,62.63306,21.53333,-39.30833,-31.11667,1
230703,0.2583008,1.414063,0.2539063,15.19775,-32.4707,-38.94043,76.93176,-0.39550779999999996,58.2605,16.075,7.891667,-2.0,1
230973,0.06347656,0.7856445,0.20996089999999998,-3.601074,4.760742,21.72852,75.58594,2.631226,54.40979,14.55833,2.758333,-0.7166667,1
231193,-0.08544922,0.9765625,0.02685547,-20.69092,43.45703,2.624512,74.29504,0.8569336,60.19409,17.16667,1.608333,-1.6,1
231413,0.1757813,1.071777,0.4833984,-7.873535,20.75195,15.80811,73.10852,0.06591797,69.60388,21.19167,-40.3,-28.06667,1
231653,-0.03222656,0.7490234,0.1499023,15.38086,-28.68652,-7.019043,74.15222,2.136841,66.48376,14.50833,1.233333,1.883333,1
231893,0.0009765625,0.9677734,0.4707031,-4.943848,-14.95361,-44.6167,77.10754,3.235474,55.94788,23.89167,-36.38334,-33.1,1
232143,0.08398438,0.7607421999999999,0.16699219999999998,10.92529,-20.44678,14.52637,77.32727,3.076172,47.91138,13.925,1.5833329999999999,-1.366667,1
232423,-0.190918,1.422363,0.1254883,14.4043,11.59668,10.31494,76.23962,3.762817,47.45544,23.15,-34.94167,-38.33333,1
232713,-0.1020508,0.7993163999999999,0.2104492,4.760742,-24.29199,-9.094238,74.60815,0.6591796999999999,44.30237,14.81667,2.433333,1.033333,1
233023,-0.105957,1.38916,0.1025391,24.10889,-24.29199,-17.51709,76.06934,-2.032471,39.28162,18.66667,-35.99166,-43.3,1
233323,0.07324219,0.8564453,0.22949219999999998,0.06103516,37.78076,19.65332,77.33276,0.5383300999999999,42.0282,16.50833,2.175,-0.9416667,1
233633,0.02441406,1.175781,0.144043,9.887695,53.77197,11.65771,75.56396,1.63147,56.51917,22.2,-37.63334,-31.88333,1
233933,-0.1264648,0.7939453,0.2104492,9.94873,33.69141,-3.601074,74.12476,-0.4504395,68.76892,19.94167,-41.13334,-27.20833,1
234243,-0.1650391,1.371582,0.05224609,31.25,-22.76611,-11.53564,75.41016,-1.604004,72.34497,15.11667,7.216667,0.03333333,1
234473,0.07421875,0.8671875,0.27832029999999996,-5.737305,17.08984,9.033203,77.42615,3.131104,71.43311,14.991670000000001,2.691667,0.01666667,1
234703,-0.16601559999999999,1.06543,0.08642578000000001,14.46533,42.05322,6.9580079999999995,76.56372,3.570557,82.15027,20.21667,-41.10833,-16.28333,1
234933,0.01074219,0.8320312999999999,0.4555664,-32.65381,65.42969,38.08594,76.34949,0.269165,89.56055,14.69167,4.7,-1.625,1
235203,0.002929688,0.8120117,0.1557617,-1.6479489999999999,25.08545,7.8125,75.33875,0.2087402,97.3114,14.96667,-0.49166669999999996,-1.766667,1
235413,0.1367188,1.044922,0.3530273,33.20313,-0.1831055,9.155273,74.20715,-2.15332,99.31641,14.16667,6.225,1.133333,1
235633,0.05810547,0.8823242,0.1489258,11.35254,26.36719,18.85986,79.59045,2.504883,100.1404,12.25,-44.4,-5.583333,1
235893,-0.06787109,0.9536133,0.1918945,-6.103516,54.44336,-7.69043,77.15698,4.564819,108.4296,17.96667,4.358333,-1.5833329999999999,1
236123,-0.3300781,1.15625,0.16601559999999999,-5.187988,57.18994,17.63916,77.3053,-0.4174805,126.6669,-2.2,-47.73333,-0.09166667,1
236363,-0.19775389999999998,0.8793945,0.0004882813,-31.49414,25.26855,27.89307,76.42639,0.3076172,135.6482,17.925,4.366667,1.016667,1
236653,-0.04833984,1.42041,0.3115234,24.84131,0.3662109,0.9155272999999999,78.89282,3.169556,136.6534,-6.958333,-47.23333,3.416667,1
236953,-0.044921880000000004,0.8466796999999999,0.0078125,-16.54053,72.81494,-5.065918,77.82166,0.6591796999999999,155.3906,18.64167,1.7083329999999999,-1.966667,1
237253,-0.4213867,1.46875,0.1181641,10.55908,103.2715,18.12744,77.04712,-2.521362,-179.4617,-34.01667,-46.025,-4.625,1
237563,-0.3896484,0.7900391,0.1303711,10.25391,8.972168,30.33447,74.47632,-1.664429,-165.108,18.46667,2.4,3.441667,1
237853,0.21875000000000003,1.02832,0.3032227,6.896973,61.03516,8.239746,79.45313,0.8679199,-161.7572,-39.85,-44.225,-9.475,1
238163,-0.2314453,1.01123,0.1298828,1.8310549999999999,49.56055,-1.89209,76.63513,2.268677,-142.1136,-43.05,-43.43333,-21.36667,1
238433,0.2504883,0.7836913999999999,0.440918,-26.79443,88.25684,62.68311,75.36072,-0.7415771,-128.8751,14.90833,3.858333,-1.725,1
238723,-0.1323242,0.8227538999999999,-0.005859375,-18.9209,15.07568,21.78955,73.28979,1.109619,-116.2244,17.95833,4.416667,0.48333329999999997,1
238933,-0.10888669999999999,1.01123,0.4624023,11.84082,-13.00049,-17.63916,73.74573,3.460693,-117.8888,-44.88334,-38.9,-35.68333,1
239163,-0.07958984,0.8735352,0.12060549999999999,-1.342773,24.16992,6.835938,74.93225,2.559814,-114.4885,13.95833,0.9,-2.016667,1
239433,-0.07958984,1.20166,0.07910156,10.43701,32.34863,10.62012,74.07532,4.762573,-107.9572,17.41667,7.966667,-1.266667,1
239643,-0.1884766,1.224609,0.2963867,16.23535,60.60791,19.28711,74.26758,2.092896,-98.33313,12.325,3.916667,1.441667,1
239893,-0.22119139999999998,1.007813,0.1987305,4.394531,-34.79004,12.93945,71.47156,2.411499,-96.03699,25.44167,6.983333,2.025,1
240133,-0.19384769999999998,0.8564453,0.3618164,-14.03809,-25.93994,-28.80859,72.93823,4.493408,-100.6512,14.725,5.483333,-0.05833333,1
240353,0.03271484,0.8901367,0.08984375,-15.56396,26.00098,-2.929688,72.70203,5.152588,-102.1674,-42.25834,-37.08333,-44.49166,1
240593,-0.1259766,1.1533200000000001,0.30957029999999996,-4.150391,10.55908,26.55029,72.92725,6.795044,-95.91614,15.68333,7.9,-1.725,1
240863,-0.13916019999999998,0.7143554999999999,0.2602539,-5.67627,11.59668,-14.16016,72.97119,3.751831,-90.7196,12.9,2.683333,0.075,1
241093,-0.0703125,1.189453,0.1308594,20.01953,-19.47021,-14.03809,72.89429,2.444458,-93.80676,-43.00834,-36.13334,-45.525,1
241363,-0.02294922,0.730957,0.2226563,2.929688,-33.02002,7.873535,74.37744,6.498413,-101.4972,-42.03333,-38.65833,-41.86666,1
241653,0.1557617,0.8930663999999999,0.17041019999999998,-5.249023,31.92139,-14.03809,73.0481,6.619263,-102.8101,21.725,2.75,1.3,1
241893,-0.2197266,1.052246,0.2202148,-12.39014,-2.01416,2.197266,74.04785,2.6477049999999998,-96.84448,13.7,3.3,1.65,1
242173,-0.1606445,1.0,0.2431641,-2.13623,-45.28809,18.31055,71.91101,0.5273438,-102.1509,-47.10833,-35.86666,-40.78333,1
242503,0.1606445,0.8964844,0.3110352,-8.911133,9.643555,10.25391,74.15771,5.119629,-107.5122,-44.025,-39.01667,-38.0,1
242783,-0.2475586,1.02002,0.2011719,3.845215,31.37207,-0.4882813,72.30103,5.921631,-99.70642,-42.025,-38.18333,-43.33333,1
243123,-0.1044922,0.7695312999999999,0.2578125,2.685547,1.708984,-11.53564,73.22388,2.087402,-92.15881,12.46667,2.7,-0.2583333,1
243323,-0.1567383,0.8271484,0.004882813000000001,-10.80322,-22.52197,10.80322,72.90527,2.147827,-92.66968,21.35,2.216667,5.341667,1
244523,-0.21337889999999998,0.9819336,0.1835938,-0.1831055,-49.37744,12.3291,72.21313,1.384277,-93.40027,-45.66667,-35.625,-43.475,1
244753,-0.1445313,0.918457,0.41259769999999996,-17.21191,-29.60205,-34.729,73.60291,5.707397,-97.53113,14.725,4.225,-0.8833333,1
244953,0.01855469,0.8193359,0.1713867,1.403809,13.30566,8.850098,73.37219,5.130615,-97.89368,15.06667,-0.5333333,-1.391667,1
245173,-0.1713867,1.062988,0.1259766,9.82666,21.11816,5.67627,71.89453,7.064209,-94.19678,19.5,8.116667,0.375,1
245393,-0.20214839999999998,0.7812500000000001,0.1801758,16.05225,-7.202148,-21.24023,73.05359,2.867432,-89.30786,-43.13334,-35.45,-46.74166,1
245633,-0.24951169999999998,0.9052734,0.1621094,4.882813,-33.3252,22.2168,72.22961,1.73584,-92.53235,22.375,-0.1083333,2.783333,1
245903,0.009277344,0.8730469,0.4555664,-15.01465,-1.953125,-48.33984,74.59167,4.696655,-97.32239,18.10833,4.783333,-1.5833329999999999,1
246123,-0.056640630000000004,0.8105469,0.01025391,-15.93018,18.61572,-10.55908,73.42163,5.707397,-96.71265,18.73333,2.858333,-0.47500000000000003,1
246403,0.03759766,0.8813477,0.4384766,-17.39502,18.67676,41.62598,73.10852,3.4552,-91.23047,-43.41667,-35.69167,-45.31667,1
246693,-0.007324219000000001,0.7822266,0.1420898,-4.272461,-33.75244,-10.37598,72.63611,4.163818,-93.35083,14.80833,-0.4,-1.525,1
246933,0.1992188,1.081055,0.5273438,-2.319336,6.713867,-40.46631,73.19641,3.647461,-100.8984,22.35833,5.983333,1.416667,1
247213,-0.028808590000000002,0.8081054999999999,0.08154297,-4.455566,11.35254,-4.455566,73.63037,4.883423,-103.244,-42.9,-39.44167,-37.84167,1
247493,-0.11621089999999999,1.202637,0.05810547,-1.586914,33.56934,15.31982,73.14697,6.652222,-99.27246,15.991670000000001,8.516666,-1.158333,1
247733,-0.07177734,0.8642578,0.1367188,3.78418,-29.84619,-18.06641,74.55322,2.801514,-97.20154,-44.975,-37.20833,-39.1,1
248073,0.1948242,1.27002,0.5288086,-7.263184,4.150391,-44.67773,73.58093,2.675171,-105.2106,19.425,7.916667,0.6166667,1
248303,0.03173828,0.7221679999999999,0.20166019999999998,2.807617,-14.34326,16.72363,73.52051,6.899414,-108.512,14.725,1.408333,-0.44166669999999997,1
248493,0.121582,0.7856445,0.04443359,-1.708984,21.85059,-13.48877,72.11426,6.635742,-107.688,21.41667,0.55,-1.183333,1
