Timestamp,AccX,AccY,AccZ,GyroX,GyroY,GyroZ,AngX,AngY,AngZ,MagX,MagY,MagZ,Tag
0,-0.01269531,0.8745117,-0.4995117,-1.586914,-0.1831055,-0.4882813,118.1305,0.7800292999999999,107.6715,18.98333,-30.18333,15.4,1
419,-0.008789063,0.8686522999999999,-0.49853519999999996,0.24414059999999999,1.586914,0.9155272999999999,117.9987,0.6976317999999999,107.688,14.85,-8.666667,-0.15,1
639,-0.006835938000000001,0.8764647999999999,-0.4960938,-3.4790039999999998,0.1831055,0.3662109,117.8339,0.6262207,107.666,14.85,-8.258333,-0.2333333,1
839,-0.004394531,0.8764647999999999,-0.4936523,-3.601074,0.3662109,0.4882813,117.334,0.6317138999999999,107.5726,15.00833,-8.066667,-0.48333329999999997,1
1029,-0.008789063,0.8833008,-0.4760742,-2.685547,-0.7324219,-0.793457,116.7902,0.4174805,107.6331,15.125,-8.316667,-0.5750000000000001,1
1229,0.006835938000000001,0.890625,-0.4702148,-7.93457,1.342773,0.5493163999999999,115.8179,0.4998779,107.5616,15.34167,-7.5,-0.8916666,1
1459,-0.0004882813,0.9082030999999999,-0.42626949999999997,-7.202148,-0.1831055,-0.4882813,113.9172,0.3790283,107.677,18.525,-32.39167,12.60833,1
1769,0.009277344,0.9086913999999999,-0.4140625,-3.234863,0.7324219,-0.3662109,112.934,0.49438479999999996,107.6111,15.49167,-6.95,-0.5166666999999999,1
2009,-0.011230470000000001,0.9140625,-0.3979492,-0.9155272999999999,-2.502441,-0.42724609999999996,112.088,0.7855225,107.3035,15.88333,-7.008333,-0.075,1
2259,-0.009765625,0.9057617,-0.3896484,0.8544921999999999,3.540039,-0.12207029999999999,112.0111,0.6262207,107.7924,18.46667,-33.04167,11.90833,1
2579,0.005371094000000001,0.9282227,-0.4257813,1.6479489999999999,-4.211426,-0.1831055,112.7472,0.3405762,107.9626,15.525,-7.258333,-0.04166667,1
2819,0.006347656,0.9003905999999999,-0.3852539,-1.281738,-2.868652,-0.5493163999999999,112.3627,0.4119873,107.8418,15.575,-6.791667,0.15833329999999998,1
3069,-0.02685547,0.9096679999999999,-0.425293,2.563477,0.42724609999999996,-0.1831055,112.9504,0.604248,107.5891,18.55,-32.75,12.3,1
3379,-0.001953125,0.9101562999999999,-0.3994141,-0.9765625,3.2958979999999998,0.6713867,112.533,0.7855225,107.2595,15.50833,-6.866667,0.01666667,1
3639,-0.01464844,0.9067383,-0.4052734,3.234863,-2.380371,-1.098633,112.6648,0.8239746,107.1552,15.4,-6.933333,0.0,1
3889,-0.01074219,0.918457,-0.4091797,0.9765625,0.8544921999999999,0.3051758,112.6428,0.9283446999999999,106.9629,15.55833,-7.016667,-0.01666667,1
4249,-0.009277344,0.9018554999999999,-0.40283199999999997,-0.24414059999999999,-0.06103516,0.0,112.5934,0.9173583999999999,106.886,15.51667,-7.083333,0.008333334000000001,1
4579,-0.017089840000000002,0.9165038999999999,-0.4160156,0.42724609999999996,0.7324219,0.24414059999999999,112.7527,0.8789062999999999,106.8036,15.49167,-6.783333,0.1083333,1
4769,-0.017089840000000002,0.9165038999999999,-0.4160156,0.42724609999999996,0.7324219,0.24414059999999999,112.7527,0.8789062999999999,106.8036,15.75,-7.416667,-0.3833333,1
4999,-0.005371094000000001,0.9008788999999999,-0.4135742,2.075195,-0.06103516,-0.24414059999999999,112.912,0.736084,106.8475,15.6,-7.483333,0.25,1
5259,-0.01269531,0.9072266,-0.4477539,0.8544921999999999,4.699707,1.6479489999999999,113.28,0.637207,106.9794,15.33333,-6.975,-0.2666667,1
5469,-0.004394531,0.8989258,-0.4018555,0.6103516,-0.3051758,0.8544921999999999,112.8516,0.3625488,107.265,15.45833,-7.075,0.2916667,1
5679,-0.006835938000000001,0.9057617,-0.4160156,0.3662109,-1.525879,-1.037598,113.1976,0.45593259999999997,107.0782,18.6,-32.41667,12.866670000000001,1
5929,-0.004882813000000001,0.9091796999999999,-0.4155273,-0.7324219,-0.6103516,0.0,113.2086,0.4174805,107.0233,15.65,-7.516667,-0.05,1
6219,-0.009277344,0.9072266,-0.4165039,0.3662109,0.0,0.06103516,113.0933,0.368042,107.0068,18.4,-32.59167,12.75,1
6479,-0.001464844,0.9199219,-0.4257813,2.13623,-0.3051758,0.12207029999999999,112.8735,0.4174805,106.8146,18.46667,-32.74166,12.55,1
6789,0.01220703,0.9072266,-0.41210939999999996,-3.540039,2.075195,1.037598,112.6318,0.2911377,106.8311,15.19167,-6.5,0.5833332999999999,1
7029,-0.007324219000000001,0.9033203,-0.4228516,-1.89209,-6.103516,-2.197266,113.1537,0.4174805,106.5729,18.5,-32.525,12.38333,1
7309,-0.009277344,0.9116211,-0.4130859,-0.42724609999999996,-0.9765625,-0.3051758,113.2086,0.5273438,106.474,15.56667,-7.458333,-0.31666669999999997,1
7639,-0.02050781,0.9008788999999999,-0.40429689999999996,2.258301,0.9765625,0.793457,113.1702,0.9338379,105.9961,15.741670000000001,-7.525,0.1416667,1
7919,-0.020996090000000002,0.8989258,-0.4140625,1.220703,-0.7324219,-0.1831055,113.4283,1.098633,105.7104,15.475,-7.316667,0.05,1
8249,0.001953125,0.8916016,-0.39550779999999996,-5.92041,2.624512,1.464844,112.6923,0.9942626999999999,105.5896,15.70833,-6.908333,0.275,1
8559,-0.001953125,0.9077147999999999,-0.4179688,-0.4882813,-2.624512,-0.9155272999999999,112.8351,0.5273438,105.9357,15.525,-6.95,0.2666667,1
8859,-0.01416016,0.9072266,-0.4238281,1.708984,-0.1831055,0.12207029999999999,113.324,0.8898925999999999,105.4358,15.66667,-7.375,0.025,1
9199,-0.04052734,0.9072266,-0.425293,-1.098633,1.098633,-0.06103516,113.3405,1.263428,105.0238,15.5,-7.175,-0.375,1
9409,-0.0034179690000000003,0.9042969,-0.3974609,-0.5493163999999999,0.1831055,0.4882813,112.9449,1.109619,105.1776,15.43333,-7.075,0.55,1
9599,-0.0034179690000000003,0.9042969,-0.3974609,-0.5493163999999999,0.1831055,0.4882813,112.9449,1.109619,105.1776,15.4,-7.133333,0.1166667,1
9819,-0.03271484,0.9106445,-0.42675779999999996,0.06103516,-1.89209,-1.89209,113.4338,1.09314,105.0842,15.36667,-7.141667,-0.03333333,1
10029,-0.03222656,0.9038086,-0.43408199999999997,2.502441,-0.5493163999999999,-0.1831055,113.9996,1.148071,104.9963,19.28333,-31.89167,12.79167,1
10289,-0.01904297,0.9003905999999999,-0.4375,-0.12207029999999999,-0.3051758,-0.42724609999999996,114.0436,1.345825,104.826,15.35833,-7.408333,-0.08333334,1
10529,-0.02197266,0.9072266,-0.4482422,-0.6713867,0.793457,0.4882813,114.0546,1.120605,104.8975,15.38333,-7.158333,-0.4583333,1
10839,-0.01074219,0.9018554999999999,-0.42626949999999997,0.6103516,-0.42724609999999996,-0.1831055,113.6096,1.065674,104.837,19.06667,-32.20833,12.68333,1
11129,-0.01318359,0.9086913999999999,-0.4389648,1.953125,0.6713867,0.793457,113.9227,0.8184813999999999,104.87,18.95833,-32.06667,13.025,1
11409,-0.011230470000000001,0.9042969,-0.41259769999999996,-0.3662109,-1.342773,-1.403809,113.6646,0.8898925999999999,104.7821,15.28333,-7.1,0.1083333,1
12719,-0.03515625,0.9101562999999999,-0.4453125,0.24414059999999999,-1.464844,-0.24414059999999999,113.6975,1.713867,103.6285,19.725,-31.91667,12.14167,1
12999,-0.026367190000000002,0.9003905999999999,-0.41113279999999996,-0.4882813,0.9155272999999999,0.7324219,113.4119,1.549072,103.6066,15.4,-7.15,0.01666667,1
13269,-0.02929688,0.9077147999999999,-0.4233398,0.3662109,0.3662109,-0.06103516,113.4338,1.571045,103.5242,19.53333,-31.99167,12.26667,1
13549,-0.0234375,0.9057617,-0.42626949999999997,0.6713867,0.5493163999999999,0.42724609999999996,113.4998,1.516113,103.42530000000001,15.43333,-7.091667,0.075,1
13879,-0.02685547,0.9047852,-0.4287109,0.1831055,-0.3662109,-0.24414059999999999,113.6426,1.472168,103.4308,15.45,-7.266667,-0.025,1
14189,-0.0234375,0.9047852,-0.42626949999999997,0.12207029999999999,-0.24414059999999999,0.0,113.6151,1.472168,103.3429,15.43333,-7.25,0.0,1
14539,-0.02441406,0.9042969,-0.4228516,-0.3662109,-0.06103516,0.06103516,113.5876,1.477661,103.2605,15.45833,-7.258333,0.0,1
14729,-0.02587891,0.9052734,-0.4213867,-0.12207029999999999,0.0,0.0,113.5876,1.488647,103.1616,19.6,-32.0,12.01667,1
14979,-0.02294922,0.9067383,-0.425293,0.9765625,0.1831055,0.0,113.714,1.494141,103.1506,15.59167,-7.508333,-0.06666667,1
15249,-0.0234375,0.9033203,-0.41992189999999996,0.12207029999999999,-0.06103516,0.0,113.6426,1.488647,103.1122,15.44167,-7.25,-0.03333333,1
15459,-0.02441406,0.902832,-0.4130859,0.6713867,-0.12207029999999999,0.12207029999999999,113.6316,1.4556879999999999,103.0518,15.43333,-7.358333,0.1416667,1
15679,-0.02294922,0.8999022999999999,-0.4213867,1.220703,-0.12207029999999999,0.0,113.8898,1.373291,103.0847,15.40833,-7.4,-0.05,1
15939,-0.02441406,0.9062500000000001,-0.4316406,-0.06103516,0.0,0.0,113.9722,1.422729,103.0023,15.40833,-7.333333,-0.09166667,1
16169,-0.02294922,0.9023437999999999,-0.42822269999999996,-1.281738,0.6103516,0.0,113.8129,1.417236,102.9419,15.35833,-7.158333,0.1916667,1
16469,-0.02685547,0.8959961,-0.41064449999999997,2.624512,-0.12207029999999999,0.3051758,114.0271,1.345825,102.9529,19.41667,-31.96667,12.76667,1
16759,-0.020996090000000002,0.9106445,-0.45166019999999996,-0.793457,0.793457,0.0,114.3842,1.40625,102.843,15.40833,-7.475,-0.6000000000000001,1
16979,-0.02441406,0.9047852,-0.4238281,1.464844,0.9155272999999999,0.4882813,113.736,1.351318,102.8265,15.44167,-7.275,0.025,1
17289,-0.01904297,0.9008788999999999,-0.4223633,0.6103516,-0.9765625,-0.3662109,113.8019,1.257935,102.7771,19.35,-32.25834,12.54167,1
17579,-0.02441406,0.8989258,-0.42822269999999996,0.9765625,0.42724609999999996,0.4882813,113.9117,1.252441,102.6947,15.30833,-7.125,0.1083333,1
17889,-0.015136720000000001,0.9042969,-0.4311523,-1.342773,0.24414059999999999,0.0,114.0546,1.224976,102.6068,19.30833,-32.0,12.71667,1
18199,-0.0234375,0.8989258,-0.3920898,-2.929688,0.12207029999999999,0.24414059999999999,113.1647,1.263428,102.5244,15.45,-6.95,0.125,1
18539,-0.02050781,0.9096679999999999,-0.4145508,1.586914,-0.06103516,0.0,113.3459,1.257935,102.431,15.49167,-7.316667,0.1083333,1
18809,-0.024902340000000002,0.9023437999999999,-0.4160156,1.342773,1.281738,0.6713867,113.4833,1.604004,102.063,15.56667,-7.3,0.1916667,1
19179,-0.03271484,0.9047852,-0.4130859,0.1831055,-0.3051758,0.0,113.3734,1.8402100000000001,101.8542,19.79167,-32.01667,11.88333,1
19449,-0.026367190000000002,0.9067383,-0.4169922,-0.7324219,1.220703,0.793457,113.4338,1.5325929999999999,102.0355,15.48333,-7.1,0.025,1
19699,-0.02929688,0.9057617,-0.4155273,0.06103516,-0.793457,-0.3662109,113.3954,1.686401,101.8762,15.49167,-7.183333,0.05,1
19899,-0.02441406,0.9023437999999999,-0.41943359999999996,-2.075195,0.5493163999999999,0.0,113.324,1.400757,102.085,19.58333,-32.2,12.03333,1
20139,-0.02978516,0.9072266,-0.41210939999999996,0.4882813,-1.220703,-0.793457,113.1317,1.8182369999999999,101.6949,15.50833,-7.108333,0.09166667,1
20389,-0.026367190000000002,0.9121094,-0.4223633,0.06103516,-0.6713867,-0.06103516,113.302,1.593018,101.7279,15.475,-7.1,-0.025,1
20709,-0.02685547,0.9047852,-0.41259769999999996,0.42724609999999996,-0.3662109,0.1831055,113.335,1.598511,101.6016,19.65,-32.075,12.18333,1
20999,-0.030273440000000002,0.9057617,-0.4233398,-0.24414059999999999,0.12207029999999999,0.1831055,113.5931,1.620483,101.4862,19.65,-31.89167,12.25833,1
21269,-0.02441406,0.9067383,-0.42675779999999996,0.06103516,-0.06103516,0.0,113.6041,1.576538,101.4587,15.44167,-7.166667,-0.025,1
21519,-0.02734375,0.9077147999999999,-0.4228516,-0.6713867,-0.12207029999999999,0.12207029999999999,113.5217,1.571045,101.3873,19.6,-32.125,12.2,1
21829,-0.02685547,0.9096679999999999,-0.42675779999999996,-1.098633,0.1831055,0.0,113.4064,1.576538,101.3159,15.43333,-7.116667,-0.1333333,1
22119,-0.02685547,0.9101562999999999,-0.41845699999999997,0.1831055,-0.06103516,0.12207029999999999,113.313,1.543579,101.272,19.575,-32.13334,11.80833,1
22429,-0.022460940000000002,0.9062500000000001,-0.4174805,0.42724609999999996,0.5493163999999999,0.4882813,113.3185,1.5325929999999999,101.1456,15.45833,-7.1,0.0,1
22769,-0.02441406,0.9057617,-0.41894529999999996,0.6713867,-0.3051758,-0.06103516,113.3954,1.51062,101.0852,15.475,-7.241667,0.1416667,1
23049,-0.02539063,0.9067383,-0.4213867,0.0,0.3051758,0.0,113.5492,1.5051269999999999,101.0028,15.5,-7.216667,0.025,1
23379,-0.026367190000000002,0.9042969,-0.4155273,0.1831055,0.0,0.0,113.4998,1.499634,100.9534,15.44167,-7.225,0.06666667,1
23639,-0.02294922,0.9057617,-0.4223633,-0.24414059999999999,0.0,-0.24414059999999999,113.5547,1.345825,100.9204,15.45,-7.125,-0.01666667,1
24019,-0.0234375,0.9082030999999999,-0.41992189999999996,0.42724609999999996,0.6103516,0.06103516,113.5712,1.367798,100.827,15.475,-7.166667,0.04166667,1
24319,-0.01855469,0.9033203,-0.41845699999999997,1.464844,-0.3662109,0.0,113.6536,1.3348389999999999,100.827,15.475,-7.216667,0.05,1
24509,-0.01855469,0.9033203,-0.41845699999999997,1.464844,-0.3662109,0.0,113.6536,1.3348389999999999,100.827,15.51667,-7.225,0.1083333,1
24739,-0.020996090000000002,0.9057617,-0.42773439999999996,-0.42724609999999996,0.06103516,0.0,113.7195,1.340332,100.7007,15.29167,-6.925,0.04166667,1
24999,-0.02294922,0.9116211,-0.4399414,2.380371,-0.42724609999999996,0.0,113.9282,1.351318,100.6238,15.54167,-7.358333,-0.36666669999999996,1
25229,-0.02148438,0.9057617,-0.42626949999999997,1.89209,0.6713867,0.0,113.67,1.345825,100.5853,19.44167,-32.15,12.08333,1
25509,-0.02197266,0.8974609,-0.4072266,-0.12207029999999999,0.3662109,0.06103516,113.5107,1.2854,100.5798,15.66667,-7.275,0.225,1
25749,-0.02197266,0.9018554999999999,-0.4174805,0.1831055,-0.793457,0.12207029999999999,113.6426,1.2854,100.4865,19.4,-32.24166,12.225,1
26039,-0.02148438,0.918457,-0.4208984,1.586914,-1.6479489999999999,0.06103516,113.7469,1.290894,100.3876,15.63333,-7.575,-0.025,1
26349,-0.02783203,0.9008788999999999,-0.41259769999999996,2.13623,0.3662109,0.0,113.9227,1.263428,100.3821,19.4,-32.15833,12.26667,1
26659,-0.02050781,0.9018554999999999,-0.4169922,1.464844,-0.6103516,-0.12207029999999999,114.104,1.1920169999999999,100.3601,15.4,-7.425,0.2666667,1
26979,-0.0234375,0.8989258,-0.4150391,1.098633,0.6713867,0.0,114.0546,1.219482,100.2942,15.38333,-7.291667,0.05,1
27259,-0.02050781,0.9067383,-0.4228516,0.0,0.3051758,0.1831055,114.0326,1.252441,100.1788,15.275,-7.191667,-0.05,1
27509,-0.02148438,0.8935546999999999,-0.4174805,1.037598,-0.9765625,-0.06103516,114.0491,1.224976,100.1019,15.325,-7.275,0.08333334,1
27779,-0.020996090000000002,0.8969727,-0.425293,-1.464844,0.24414059999999999,0.06103516,113.9227,1.263428,100.0031,15.64167,-7.608333,-0.2166667,1
28089,-0.02001953,0.9042969,-0.4243164,0.0,0.6103516,0.3051758,113.9502,1.252441,99.92615,15.45833,-7.258333,0.04166667,1
28459,-0.02001953,0.9140625,-0.4331055,-0.5493163999999999,-0.3662109,0.12207029999999999,113.9282,1.252441,99.84924,15.375,-7.125,0.04166667,1
28739,-0.020996090000000002,0.9072266,-0.4291992,0.6713867,-0.12207029999999999,0.12207029999999999,113.9008,1.224976,99.81079,15.49167,-7.258333,0.01666667,1
28969,-0.009765625,0.8994141,-0.4169922,0.9155272999999999,0.3662109,0.4882813,113.8843,1.060181,99.82178,15.43333,-7.2,0.275,1
30219,-0.015625,0.902832,-0.4248047,0.12207029999999999,-0.12207029999999999,0.12207029999999999,113.9447,1.071167,99.52515,15.5,-7.258333,0.1,1
30429,-0.02050781,0.8974609,-0.4179688,-0.6713867,-0.3051758,0.0,113.9337,1.104126,99.44275,15.29167,-7.125,0.15833329999999998,1
30639,-0.020996090000000002,0.8999022999999999,-0.4174805,0.4882813,-1.220703,-0.24414059999999999,113.9282,1.104126,99.36584,15.59167,-7.241667,0.2083333,1
30849,-0.022460940000000002,0.9062500000000001,-0.4326172,0.8544921999999999,0.12207029999999999,0.1831055,114.0436,1.219482,99.23401,15.5,-7.45,0.2333333,1
31069,-0.01904297,0.9038086,-0.42724609999999996,-1.220703,-0.9765625,-0.24414059999999999,114.115,1.115112,99.245,15.44167,-7.441667,-0.15,1
31369,-0.01904297,0.902832,-0.4243164,0.12207029999999999,0.1831055,-0.12207029999999999,114.0875,1.142578,99.20105,15.46667,-7.308333,0.09166667,1
31589,-0.01953125,0.9047852,-0.4257813,-0.793457,-0.24414059999999999,0.06103516,114.0656,1.208496,99.12415,19.39167,-32.10833,12.65,1
31859,-0.02001953,0.9047852,-0.42626949999999997,0.24414059999999999,-0.42724609999999996,-0.12207029999999999,114.0271,1.170044,99.08569,19.3,-31.98333,12.425,1
32159,-0.022460940000000002,0.9013671999999999,-0.42626949999999997,0.12207029999999999,0.5493163999999999,0.06103516,114.0601,1.18103,99.02527,15.39167,-7.258333,0.008333334000000001,1
32409,-0.02050781,0.8999022999999999,-0.42626949999999997,0.3051758,0.3051758,-0.06103516,114.0985,1.137085,98.98682,19.3,-32.08333,12.53333,1
32669,-0.022460940000000002,0.8999022999999999,-0.41894529999999996,-0.5493163999999999,-0.12207029999999999,0.06103516,114.0875,1.153564,98.90991,19.325,-32.01667,12.325,1
32989,-0.020996090000000002,0.9023437999999999,-0.4257813,-0.5493163999999999,0.6103516,0.0,114.093,1.153564,98.88794,15.41667,-7.241667,0.24166669999999998,1
33229,-0.01904297,0.9091796999999999,-0.42773439999999996,0.8544921999999999,0.06103516,0.0,114.126,1.170044,98.80005,15.5,-7.425,0.025,1
33509,-0.02001953,0.9033203,-0.42822269999999996,-0.3051758,-0.1831055,0.0,114.0381,1.186523,98.71765,15.4,-7.275,0.09166667,1
33879,-0.02148438,0.9023437999999999,-0.41894529999999996,0.6103516,0.12207029999999999,0.1831055,114.2139,1.159058,98.61328,19.25833,-32.125,12.40833,1
34109,-0.01953125,0.9008788999999999,-0.425293,-1.953125,0.3662109,0.0,114.0765,1.175537,98.53088,15.425,-7.108333,-0.1333333,1
34389,-0.0234375,0.9057617,-0.425293,-0.3051758,-0.1831055,0.0,113.9886,1.18103,98.49243,15.64167,-7.45,-0.08333334,1
34599,-0.02783203,0.9062500000000001,-0.4291992,-2.990723,-0.4882813,-0.6713867,113.7195,1.213989,98.47595,15.38333,-6.841667,-0.1666667,1
34809,-0.01855469,0.9179687999999999,-0.4365234,-0.9765625,0.5493163999999999,0.1831055,113.4668,1.208496,98.39905,19.31667,-32.45833,11.91667,1
35079,-0.02294922,0.9106445,-0.4057617,-2.197266,-2.929688,-1.281738,112.901,1.417236,98.15186,15.65,-6.875,-0.04166667,1
35299,-0.022460940000000002,0.9135742,-0.4077148,0.4882813,-0.793457,-0.12207029999999999,112.7692,1.340332,98.1189,15.59167,-6.858333,0.09166667,1
35609,-0.02539063,0.9135742,-0.4067383,-0.8544921999999999,0.1831055,-0.1831055,112.7911,1.367798,98.00354,19.58333,-32.59167,11.30833,1
35899,-0.02441406,0.9150391,-0.4082031,-0.793457,-0.12207029999999999,0.1831055,112.6373,1.433716,97.84424,15.55,-6.725,-0.075,1
36249,-0.0234375,0.9155272999999999,-0.4077148,0.24414059999999999,-0.24414059999999999,-0.3051758,112.6099,1.40625,97.73987,15.56667,-6.758333,0.05,1
36519,-0.0234375,0.9155272999999999,-0.40625000000000006,0.06103516,0.0,0.3051758,112.6373,1.367798,97.7179,19.55833,-32.69167,11.35,1
36779,-0.02441406,0.9155272999999999,-0.4052734,0.24414059999999999,-0.1831055,0.0,112.6373,1.395264,97.64648,15.59167,-6.875,-0.06666667,1
37029,-0.024902340000000002,0.9135742,-0.4003906,0.12207029999999999,0.12207029999999999,0.24414059999999999,112.6538,1.384277,97.60254,19.55,-32.65,11.29167,1
37349,-0.02050781,0.9135742,-0.3974609,0.0,-0.5493163999999999,-0.06103516,112.6703,1.395264,97.54761,15.59167,-6.908333,0.09166667,1
37679,-0.02392578,0.9150391,-0.4018555,0.6103516,-0.5493163999999999,-0.3662109,112.7582,1.351318,97.52563,15.61667,-6.991667,0.1083333,1
37959,-0.02441406,0.9091796999999999,-0.4013672,0.5493163999999999,0.5493163999999999,0.24414059999999999,112.8735,1.296387,97.4707,15.58333,-6.958333,0.35000000000000003,1
38319,-0.01904297,0.9116211,-0.4091797,1.342773,0.0,-0.3051758,113.3185,1.329346,97.33887,19.45,-32.31667,11.925,1
38589,-0.026367190000000002,0.9101562999999999,-0.42675779999999996,0.3051758,0.42724609999999996,0.3051758,113.681,1.351318,97.28943,15.48333,-7.158333,0.008333334000000001,1
38829,-0.024902340000000002,0.9077147999999999,-0.4208984,-0.5493163999999999,0.06103516,-0.12207029999999999,113.6481,1.351318,97.26746,15.46667,-7.091667,-0.01666667,1
39039,-0.02392578,0.9077147999999999,-0.4160156,-0.3051758,0.0,0.0,113.5767,1.345825,97.21252,19.725,-32.28333,11.80833,1
39309,-0.02392578,0.9086913999999999,-0.42041019999999996,0.06103516,0.0,0.0,113.5876,1.356812,97.15759,15.46667,-7.058333,-0.01666667,1
39519,-0.024902340000000002,0.9082030999999999,-0.41894529999999996,-0.24414059999999999,0.0,0.0,113.5822,1.3623049999999999,97.11365,19.49167,-32.13334,11.78333,1
39779,-0.02441406,0.9096679999999999,-0.4213867,-0.06103516,-0.06103516,0.0,113.6591,1.367798,97.10815,15.49167,-7.116667,-0.04166667,1
40059,-0.02441406,0.9077147999999999,-0.41943359999999996,0.12207029999999999,0.0,0.0,113.7085,1.373291,97.10266,19.55833,-32.325,11.88333,1
40319,-0.026367190000000002,0.9091796999999999,-0.4160156,0.5493163999999999,0.0,0.0,113.8019,1.378784,97.10266,19.51667,-32.425,11.98333,1
40619,-0.0234375,0.9116211,-0.4243164,-1.159668,0.1831055,0.0,113.8733,1.378784,97.10815,15.43333,-6.891667,-0.15,1
40879,-0.020996090000000002,0.9145508,-0.4311523,-0.4882813,0.3051758,0.1831055,113.8239,1.373291,97.02026,15.43333,-6.95,-0.1083333,1
41149,-0.0234375,0.9121094,-0.42724609999999996,-0.6103516,0.24414059999999999,0.12207029999999999,113.7854,1.367798,96.95435,15.45,-6.95,-0.075,1
41489,-0.02197266,0.9111328,-0.4238281,-0.3662109,0.42724609999999996,0.1831055,113.714,1.367798,96.89392,15.425,-6.933333,-0.008333334000000001,1
41739,-0.0234375,0.9106445,-0.41894529999999996,-0.3051758,0.12207029999999999,0.12207029999999999,113.6865,1.356812,96.84448,19.45,-32.375,11.90833,1
42059,-0.02539063,0.9072266,-0.4155273,0.12207029999999999,0.0,0.0,113.6261,1.351318,96.77856,19.58333,-32.275,11.73333,1
42389,-0.020996090000000002,0.9106445,-0.41894529999999996,0.12207029999999999,0.0,0.0,113.7469,1.345825,96.77307,15.50833,-7.083333,-0.008333334000000001,1
42699,-0.024902340000000002,0.9082030999999999,-0.41894529999999996,0.12207029999999999,0.24414059999999999,0.0,113.8293,1.356812,96.75659,15.5,-7.091667,0.0,1
43039,-0.02832031,0.9091796999999999,-0.42041019999999996,0.6713867,0.42724609999999996,-0.3051758,114.0106,1.373291,96.7511,15.55833,-7.158333,0.0,1
43259,-0.01953125,0.9086913999999999,-0.4233398,0.3662109,0.8544921999999999,0.42724609999999996,113.9941,1.213989,96.77307,19.35,-32.29167,11.925,1
43539,-0.02392578,0.9106445,-0.4287109,-0.9155272999999999,-0.1831055,-0.42724609999999996,113.9996,1.164551,96.82251,15.48333,-7.05,-0.1333333,1
43749,-0.02197266,0.9140625,-0.4228516,-0.4882813,1.403809,0.6103516,113.7964,1.213989,96.71265,19.31667,-32.46667,11.79167,1
43999,-0.02050781,0.9096679999999999,-0.4155273,-1.525879,-2.502441,-1.220703,113.5052,1.230469,96.68518,15.48333,-6.983333,0.03333333,1
44279,-0.02587891,0.9096679999999999,-0.4091797,-0.3662109,0.06103516,0.3051758,113.291,1.422729,96.46545,19.575,-32.53333,11.55833,1
44539,-0.02734375,0.9091796999999999,-0.4008789,-0.9765625,0.24414059999999999,0.3051758,113.0768,1.395264,96.43799,15.58333,-6.916667,0.0,1
44769,-0.02685547,0.9135742,-0.3945313,-0.24414059999999999,-3.051758,-1.708984,113.0054,1.4556879999999999,96.41602,19.65,-32.64167,11.23333,1
45059,-0.04052734,0.9125977,-0.4155273,0.06103516,0.6713867,0.12207029999999999,113.1372,1.763306,96.1853,15.35833,-6.475,-0.1333333,1
45319,-0.0390625,0.9125977,-0.42724609999999996,-0.8544921999999999,-0.9155272999999999,-0.4882813,113.3569,1.906128,96.03149,15.525,-6.791667,-0.05,1
45589,-0.03173828,0.9116211,-0.4101563,-1.098633,-2.01416,-0.5493163999999999,113.302,1.8182369999999999,96.00403,15.58333,-6.991667,0.0,1
45919,-0.03271484,0.9091796999999999,-0.4101563,0.1831055,0.42724609999999996,0.24414059999999999,113.5272,1.774292,95.93811,15.56667,-7.141667,-0.05,1
47169,-0.02783203,0.9125977,-0.4179688,1.281738,0.0,0.0,113.3459,1.604004,95.75684,19.85,-32.48333,11.40833,1
47459,-0.04296875,0.9179687999999999,-0.4257813,2.990723,1.8310549999999999,0.9765625,113.9777,1.428223,96.08093,15.49167,-7.466667,0.0,1
47729,-0.02148438,0.9042969,-0.4140625,0.24414059999999999,-0.12207029999999999,-0.9155272999999999,114.0271,1.378784,96.19629,15.45,-7.35,0.1,1
48029,-0.02587891,0.8964844,-0.40283199999999997,-1.403809,-1.098633,-0.7324219,113.8239,1.433716,96.24573,15.50833,-7.266667,0.2583333,1
48329,-0.02197266,0.9062500000000001,-0.421875,0.9155272999999999,-0.12207029999999999,0.0,114.0436,1.400757,96.17981,15.45,-7.25,0.1166667,1
48669,-0.02929688,0.8984375,-0.4003906,-1.464844,0.9155272999999999,0.12207029999999999,113.6975,1.582031,95.93262,15.51667,-7.2,0.3416667,1
48909,-0.02685547,0.9125977,-0.4301758,-2.807617,-2.197266,0.24414059999999999,113.8184,1.367798,95.95459,19.63333,-32.25834,11.83333,1
49149,-0.02978516,0.9067383,-0.3789063,-4.882813,-1.7700200000000001,1.098633,112.7197,1.565552,95.21851,15.69167,-6.816667,-0.325,1
49389,-0.03564453,0.9155272999999999,-0.3754883,-1.7700200000000001,0.6713867,0.0,111.8408,1.928101,94.61975,20.15833,-33.04167,10.10833,1
49619,-0.03759766,0.9208984,-0.3852539,1.525879,6.530762,1.464844,111.9562,1.488647,95.22949,15.741670000000001,-6.866667,0.01666667,1
49909,-0.03076172,0.9160155999999999,-0.3867188,-0.793457,-1.098633,-0.9155272999999999,112.066,1.653442,95.09216,15.79167,-6.908333,-0.1,1
50119,-0.03076172,0.9160155999999999,-0.3867188,-0.793457,-1.098633,-0.9155272999999999,112.066,1.653442,95.09216,15.73333,-6.383333,-0.35000000000000003,1
50339,-0.02441406,0.9414062999999999,-0.38720699999999997,-1.403809,0.6103516,0.42724609999999996,110.918,1.538086,94.71313,15.8,-6.15,0.0,1
50599,-0.03125,0.9296875,-0.378418,0.3051758,1.6479489999999999,1.037598,110.9399,1.494141,94.6637,15.85,-6.416667,0.1,1
50809,-0.02734375,0.9257812999999999,-0.3671875,2.563477,-0.24414059999999999,-0.1831055,111.1322,1.384277,94.73511,15.975,-6.633333,0.05,1
51129,-0.02734375,0.9165038999999999,-0.3764648,0.4882813,-0.24414059999999999,0.0,111.297,1.433716,94.72412,19.49167,-33.3,10.475,1
51419,-0.024902340000000002,0.9287109,-0.38134769999999996,0.06103516,-0.1831055,0.3051758,111.2695,1.30188,94.80652,15.84167,-6.391667,-0.03333333,1
51759,-0.01318359,0.9301758,-0.3989258,1.342773,0.0,-0.12207029999999999,111.4288,1.307373,94.65271,15.76667,-6.475,-0.25,1
52049,-0.024902340000000002,0.9228516,-0.3833008,0.9155272999999999,0.06103516,0.06103516,111.33,1.296387,94.70764,15.8,-6.541667,-0.1833333,1
52379,-0.02148438,0.9272461,-0.38769529999999996,1.281738,1.403809,0.24414059999999999,111.4838,1.268921,94.64722,15.725,-6.433333,-0.025,1
52649,-0.02392578,0.921875,-0.3842773,0.793457,0.0,-0.06103516,111.6156,1.345825,94.62524,15.81667,-6.608333,-0.008333334000000001,1
53009,-0.02441406,0.9252929999999999,-0.38867189999999996,-0.42724609999999996,-1.7700200000000001,-0.3051758,111.7749,1.395264,94.51538,19.65833,-33.225,10.61667,1
53279,-0.024902340000000002,0.9257812999999999,-0.3867188,-0.6103516,0.0,0.0,111.7474,1.351318,94.49341,15.78333,-6.641667,-0.275,1
53539,-0.03076172,0.9199219,-0.3681641,-1.464844,-0.12207029999999999,-0.06103516,111.4398,1.439209,94.41101,15.725,-6.45,0.17500000000000002,1
53729,-0.02197266,0.9243163999999999,-0.3823242,-0.7324219,-0.4882813,-0.1831055,111.5826,1.318359,94.36707,19.65833,-33.15833,10.525,1
53979,-0.02783203,0.9233397999999999,-0.3818359,0.0,0.0,0.06103516,111.5442,1.411743,94.28467,15.73333,-6.5,0.025,1
54209,-0.02734375,0.9213867,-0.3818359,0.12207029999999999,0.06103516,0.0,111.5826,1.378784,94.24072,19.525,-33.1,10.43333,1
54469,-0.026367190000000002,0.9223633,-0.3857422,0.3662109,-0.12207029999999999,-0.06103516,111.665,1.389771,94.19128,15.75,-6.625,0.0,1
54759,-0.026367190000000002,0.9248046999999999,-0.3867188,-0.24414059999999999,-0.12207029999999999,0.0,111.6705,1.395264,94.1803,19.56667,-33.14167,10.38333,1
55049,-0.02539063,0.9223633,-0.3759766,-0.12207029999999999,0.12207029999999999,0.0,111.5112,1.40625,94.14185,15.76667,-6.616667,0.15833329999999998,1
55359,-0.026367190000000002,0.9228516,-0.38037109999999996,1.220703,-0.7324219,-0.42724609999999996,111.7804,1.389771,94.10889,19.65833,-33.13334,10.45833,1
55669,-0.02587891,0.9189453,-0.3867188,-0.793457,0.6713867,0.3662109,111.709,1.433716,94.021,15.65,-6.241667,-0.025,1
55999,-0.02539063,0.9228516,-0.3842773,0.12207029999999999,0.24414059999999999,0.06103516,111.8024,1.40625,93.94409,15.75833,-6.7,0.08333334,1
56259,-0.026367190000000002,0.9213867,-0.3867188,0.0,-0.3662109,0.0,111.8518,1.433716,93.86719,19.58333,-33.125,10.50833,1
56539,-0.026367190000000002,0.9223633,-0.3896484,-0.6103516,0.24414059999999999,0.0,111.8683,1.433716,93.83972,15.725,-6.583333,0.025,1
56789,-0.02685547,0.921875,-0.3896484,0.3662109,-0.3662109,0.0,111.8793,1.450195,93.76831,15.65833,-6.5,0.225,1
57089,-0.02929688,0.9204102,-0.3979492,-0.6103516,0.793457,0.3051758,112.1869,1.417236,93.74084,15.66667,-6.616667,-0.06666667,1
57429,-0.02539063,0.9189453,-0.3911133,-1.037598,-0.4882813,0.0,111.9836,1.373291,93.6969,15.64167,-6.575,-0.06666667,1
57729,-0.0234375,0.9223633,-0.3920898,-0.24414059999999999,-0.8544921999999999,-0.24414059999999999,111.9727,1.345825,93.63647,15.64167,-6.491667,-0.008333334000000001,1
57979,-0.026367190000000002,0.9223633,-0.3979492,0.06103516,0.3051758,0.12207029999999999,112.2198,1.400757,93.49915,15.69167,-6.658333,0.04166667,1
58239,-0.02734375,0.9213867,-0.3901367,-0.12207029999999999,-1.220703,-0.42724609999999996,112.2363,1.516113,93.31787,15.675,-6.75,-0.025,1
58449,-0.02832031,0.9189453,-0.38916019999999996,0.0,-0.3662109,0.0,112.2089,1.565552,93.2135,15.7,-6.725,-0.03333333,1
58669,-0.02978516,0.9208984,-0.3930664,0.0,0.06103516,0.06103516,112.2089,1.6149900000000001,93.09814,15.71667,-6.733333,-0.05,1
58979,-0.02929688,0.9174804999999999,-0.3857422,0.42724609999999996,0.1831055,0.0,112.11,1.620483,93.04321,19.81667,-32.825,10.30833,1
59269,-0.02734375,0.9174804999999999,-0.390625,-0.06103516,0.0,0.0,112.1539,1.625977,93.01575,15.68333,-6.708333,0.1166667,1
59589,-0.02783203,0.9169921999999999,-0.38769529999999996,1.525879,1.8310549999999999,0.5493163999999999,112.3352,1.565552,93.11462,19.675,-32.79167,10.73333,1
59879,-0.02685547,0.9160155999999999,-0.3979492,0.3662109,0.24414059999999999,0.0,112.5769,1.472168,93.17505,19.49167,-32.74166,10.90833,1
60159,-0.02685547,0.9165038999999999,-0.39501949999999997,-0.1831055,0.0,0.1831055,112.5494,1.433716,93.16956,15.7,-6.875,0.01666667,1
60409,-0.02392578,0.9189453,-0.39599609999999996,0.6713867,-0.3051758,0.0,112.533,1.428223,93.11462,15.675,-6.8,0.0,1
60699,-0.026367190000000002,0.9140625,-0.3867188,0.7324219,0.3662109,0.3662109,112.5055,1.389771,93.07617,15.7,-6.908333,0.06666667,1
61009,-0.028808590000000002,0.9155272999999999,-0.3984375,0.3662109,-0.3662109,-0.06103516,112.5879,1.466675,92.95532,15.675,-6.816667,0.0,1
61299,-0.02294922,0.9160155999999999,-0.3945313,0.06103516,0.6713867,0.06103516,112.5604,1.411743,92.94434,19.70833,-32.875,11.10833,1
61589,-0.02539063,0.9165038999999999,-0.394043,1.037598,0.24414059999999999,0.0,112.5714,1.450195,92.84546,19.6,-32.71667,10.975,1
61889,-0.02734375,0.9135742,-0.394043,0.42724609999999996,0.0,0.0,112.6703,1.472168,92.79053,19.63333,-32.66667,11.01667,1
62199,-0.02685547,0.9165038999999999,-0.3989258,-0.06103516,-0.12207029999999999,0.0,112.6978,1.472168,92.74658,19.525,-32.71667,11.1,1
62539,-0.02587891,0.9140625,-0.3930664,-0.06103516,-0.24414059999999999,0.0,112.6373,1.477661,92.70264,15.65,-6.866667,0.04166667,1
62799,-0.02929688,0.9174804999999999,-0.39648439999999996,-0.3662109,0.12207029999999999,0.0,112.6703,1.483154,92.67517,15.64167,-6.75,0.0,1
63019,-0.02734375,0.9233397999999999,-0.4023438,-0.6713867,0.1831055,0.0,112.7197,1.494141,92.66418,15.66667,-6.65,-0.3333333,1
63279,-0.026367190000000002,0.9096679999999999,-0.3701172,1.098633,-0.12207029999999999,0.3051758,112.4506,1.483154,92.66418,15.78333,-7.0,0.2916667,1
64489,-0.026367190000000002,0.9179687999999999,-0.4003906,0.4882813,-0.42724609999999996,0.0,112.7637,1.472168,92.39502,15.61667,-6.8,0.008333334000000001,1
64719,-0.02734375,0.9160155999999999,-0.40380859999999996,0.06103516,0.0,0.0,112.901,1.483154,92.36206,19.64167,-32.675,10.991670000000001,1
64979,-0.02685547,0.9145508,-0.3994141,-0.1831055,0.0,0.0,112.923,1.483154,92.37305,15.63333,-6.825,0.008333334000000001,1
65219,-0.02734375,0.9150391,-0.40478519999999996,0.1831055,0.0,0.0,112.9944,1.483154,92.38953,19.64167,-32.74166,11.03333,1
65509,-0.02587891,0.9135742,-0.3989258,0.24414059999999999,0.0,0.0,112.9999,1.488647,92.39502,15.59167,-6.858333,0.05,1
65789,-0.02539063,0.9140625,-0.3984375,0.06103516,-0.1831055,0.0,113.0988,1.494141,92.38953,15.63333,-6.858333,0.025,1
66069,-0.024902340000000002,0.9130859,-0.3989258,0.12207029999999999,0.0,0.0,113.1262,1.494141,92.38953,15.61667,-6.833333,0.0,1
66329,-0.024902340000000002,0.9155272999999999,-0.3989258,0.6713867,-0.06103516,0.0,113.1757,1.499634,92.38403,15.64167,-6.933333,0.1166667,1
66639,-0.02783203,0.9160155999999999,-0.4023438,0.24414059999999999,-0.12207029999999999,0.0,113.28,1.516113,92.35657,19.54167,-32.55,11.0,1
66949,-0.02783203,0.9145508,-0.40380859999999996,-0.9155272999999999,-0.6103516,-0.3051758,113.3075,1.560059,92.34009,15.63333,-6.858333,-0.025,1
67269,-0.026367190000000002,0.9189453,-0.40429689999999996,0.8544921999999999,0.0,0.24414059999999999,113.2306,1.521606,92.3291,15.575,-6.783333,-0.075,1
67559,-0.03564453,0.9213867,-0.41943359999999996,0.0,0.06103516,-0.6713867,113.4393,1.653442,92.23572,15.64167,-6.983333,-0.24166669999999998,1
67879,-0.03857422,0.9208984,-0.40283199999999997,0.1831055,0.9765625,0.6103516,113.0603,1.82373,92.03247,15.7,-6.808333,0.15,1
68199,-0.03076172,0.9208984,-0.4130859,0.6713867,-0.1831055,-0.4882813,113.2196,1.691895,92.04895,15.60833,-6.816667,-0.25,1
68439,-0.03076172,0.9150391,-0.38769529999999996,-1.159668,-0.7324219,0.0,112.9504,1.867676,91.86768000000001,15.64167,-6.783333,0.1916667,1
68649,-0.03417969,0.9165038999999999,-0.4008789,0.0,-0.4882813,-0.06103516,113.0603,1.763306,91.87866,19.94167,-32.5,11.125,1
68889,-0.03173828,0.9091796999999999,-0.3901367,-0.1831055,-0.06103516,0.1831055,112.9999,1.763306,91.8457,15.66667,-6.8,-0.05,1
69119,-0.03271484,0.9155272999999999,-0.39648439999999996,0.3051758,0.1831055,0.0,112.9449,1.768799,91.79077,19.8,-32.64167,10.96667,1
69379,-0.03173828,0.9150391,-0.3974609,-0.42724609999999996,-0.1831055,0.0,112.934,1.768799,91.77429,15.64167,-6.816667,0.0,1
69659,-0.03271484,0.9121094,-0.39501949999999997,-0.06103516,-0.06103516,0.0,112.879,1.774292,91.72485,19.89167,-32.875,11.0,1
69949,-0.03173828,0.9135742,-0.39550779999999996,-0.12207029999999999,0.0,0.0,112.9175,1.785278,91.69739,15.64167,-6.741667,0.0,1
70259,-0.03076172,0.9116211,-0.39550779999999996,0.0,0.24414059999999999,0.0,112.9889,1.779785,91.72485,19.80833,-32.64167,11.13333,1
70549,-0.03125,0.9179687999999999,-0.40429689999999996,-2.685547,0.3662109,0.5493163999999999,112.9449,1.741333,91.77979,15.45,-6.366667,0.08333334,1
70869,-0.030273440000000002,0.9208984,-0.4155273,1.098633,0.24414059999999999,0.24414059999999999,113.313,1.697388,91.71936,19.91667,-32.475,11.21667,1
71159,-0.03076172,0.9179687999999999,-0.3999023,-6.04248,0.3662109,0.0,113.0109,1.680908,91.73035,19.81667,-32.70833,10.975,1
71449,-0.02783203,0.9160155999999999,-0.38134769999999996,2.258301,1.220703,0.7324219,112.5989,1.609497,91.75232,15.83333,-7.125,0.25,1
71689,-0.030273440000000002,0.9077147999999999,-0.3681641,0.6103516,-1.464844,-0.4882813,112.4945,1.625977,91.71936,15.775,-7.083333,0.3833333,1
72009,-0.02685547,0.9072266,-0.37939449999999997,1.281738,-0.3662109,0.12207029999999999,112.6978,1.565552,91.69189,15.88333,-7.308333,-0.1666667,1
72299,-0.03320313,0.9150391,-0.37988279999999996,1.6479489999999999,-0.1831055,0.5493163999999999,112.6373,1.625977,91.55457,15.83333,-7.25,0.2833333,1
72639,-0.03369141,0.9062500000000001,-0.35742189999999996,-3.540039,-1.586914,-0.4882813,112.2913,1.549072,91.56555,15.675,-6.25,0.7166667,1
72879,-0.03955078,0.9213867,-0.3896484,-2.075195,-0.3051758,-0.8544921999999999,112.7472,1.8402100000000001,91.27991,20.0,-32.64167,10.85,1
73129,-0.02539063,0.9174804999999999,-0.3901367,1.342773,0.8544921999999999,1.342773,112.6154,1.664429,91.31836,15.675,-6.658333,0.17500000000000002,1
73359,-0.03076172,0.9096679999999999,-0.38769529999999996,-0.24414059999999999,-0.4882813,-0.5493163999999999,112.7527,1.71936,91.2085,19.83333,-32.6,10.79167,1
73599,-0.03613281,0.9165038999999999,-0.3984375,0.3662109,0.0,0.3662109,112.8241,1.834717,91.06018,15.65833,-6.791667,0.01666667,1
73889,-0.02148438,0.9106445,-0.3901367,1.403809,-0.4882813,-0.06103516,112.9065,1.51062,91.203,19.7,-32.68333,11.04167,1
74179,-0.02783203,0.9130859,-0.4018555,0.6103516,-0.3051758,0.0,113.0988,1.5051269999999999,91.16455,15.6,-6.933333,-0.06666667,1
74499,-0.030273440000000002,0.9111328,-0.4003906,0.6713867,0.793457,0.3051758,113.0933,1.593018,91.07117,20.00833,-32.69167,11.40833,1
74789,-0.028808590000000002,0.9145508,-0.40380859999999996,-0.3051758,0.0,-0.06103516,113.1702,1.554565,91.04919,15.56667,-6.875,-0.01666667,1
75099,-0.030273440000000002,0.9150391,-0.40625000000000006,-0.42724609999999996,0.1831055,0.0,113.1317,1.582031,90.99426,19.8,-32.50834,11.10833,1
75409,-0.028808590000000002,0.9174804999999999,-0.40332029999999996,-0.3662109,0.0,0.0,113.1262,1.598511,90.98328,15.63333,-6.825,0.0,1
75729,-0.03125,0.9189453,-0.4057617,-0.3051758,0.24414059999999999,0.0,113.1537,1.620483,90.9613,15.60833,-6.866667,0.008333334000000001,1
75999,-0.03076172,0.9155272999999999,-0.3999023,-0.5493163999999999,0.24414059999999999,0.0,113.1372,1.63147,90.9668,19.84167,-32.63334,10.90833,1
76269,-0.02978516,0.9165038999999999,-0.40283199999999997,0.1831055,0.0,0.0,113.1537,1.6479489999999999,90.95032,15.59167,-6.85,0.0,1
76519,-0.03076172,0.9160155999999999,-0.40283199999999997,0.3051758,0.24414059999999999,0.0,113.2141,1.658936,90.94482,15.625,-6.733333,0.01666667,1
76839,-0.03076172,0.9155272999999999,-0.4013672,0.0,-0.1831055,0.0,113.3459,1.680908,90.91187,15.59167,-6.833333,0.0,1
77169,-0.03076172,0.9179687999999999,-0.41162109999999996,-0.06103516,0.1831055,0.0,113.4174,1.691895,90.91187,15.56667,-6.833333,-0.15833329999999998,1
77479,-0.03173828,0.9174804999999999,-0.40332029999999996,0.4882813,-0.12207029999999999,0.0,113.2965,1.686401,90.90088,15.58333,-6.8,0.03333333,1
77699,-0.02978516,0.9135742,-0.40380859999999996,-0.12207029999999999,-0.1831055,0.0,113.335,1.697388,90.84045,19.76667,-32.53333,11.14167,1
77959,-0.03271484,0.9248046999999999,-0.41113279999999996,-0.3051758,-0.24414059999999999,-0.3662109,113.2745,1.7248539999999999,90.75806,15.78333,-7.166667,-0.5083333,1
78189,-0.03662109,0.9350586,-0.4155273,-8.483887,-0.3662109,-0.9765625,112.3297,1.8457029999999999,90.73059,16.96667,-6.883333,-3.075,1
78399,-0.04199219,1.300781,-0.39599609999999996,-64.63623,4.699707,13.42773,101.0468,0.8459473,91.09314,18.69167,-38.375,2.341667,1
78639,0.04541016,1.084961,-0.03515625,-28.86963,32.2876,5.432129,87.36877,-2.329102,94.6637,13.44167,0.49166669999999996,-1.183333,1
78929,-0.1723633,0.7724609,0.1279297,-2.685547,98.63281,12.69531,85.30334,-4.465942,119.5532,5.0,-45.9,4.633333,1
79199,-0.05175781,0.8862304999999999,-0.04394531,-18.37158,75.37842,-5.615234,84.36401,-3.90564,145.9259,-5.358333,-46.03333,9.008333,1
79519,0.03173828,0.9355469,-0.015136720000000001,7.873535,34.91211,-2.380371,84.48486,-2.93335,156.6541,18.56667,-5.083333,2.225,1
79739,0.08789063,1.023438,0.1572266,27.34375,12.63428,-6.408691,89.10461,-4.75708,165.7068,-15.43333,-44.03333,12.88333,1
80029,-0.125,0.8608397999999999,-0.04345703,-36.86523,-5.92041,19.47021,87.03918,-3.059692,170.8484,19.5,-3.616667,3.375,1
80349,0.06738281,1.186523,0.2036133,22.2168,47.9126,-26.67236,89.31885,-2.054443,175.155,-19.40833,-45.83333,10.5,1
80629,-0.18945309999999999,0.7836913999999999,-0.07958984,-32.53174,16.96777,-24.04785,86.42944,-2.186279,-167.0691,18.74167,-0.01666667,1.425,1
81949,-0.06640625,1.042969,-0.03662109,28.80859,-10.25391,-3.78418,85.44067,1.043701,-167.8601,18.58333,5.108333,6.25,1
82249,-0.2504883,0.6865234,0.09375000000000001,-24.16992,-49.86572,-46.44775,88.91235,-4.735107,-174.2487,16.69167,-1.2,0.975,1
82589,0.06591797,1.062988,-0.04248047,7.8125,26.7334,15.99121,85.89111,-4.416504,177.3083,22.00833,4.283333,6.466667,1
82859,0.09521484000000001,0.7226562999999999,0.1645508,3.540039,41.80908,30.2124,88.16528,-1.549072,-175.0781,15.96667,0.5166666999999999,0.04166667,1
83229,-0.269043,0.8574219,0.3666992,59.75342,-10.13184,51.14746,85.75928,-1.488647,-171.8811,-22.375,-44.55833,12.05,1
83459,-0.234375,0.6733397999999999,0.08691406,-6.713867,-25.45166,-38.20801,86.63818,-4.224243,-174.2212,14.16667,-1.208333,1.716667,1
83739,-0.1171875,0.8608397999999999,-0.05371094,-39.42871,-5.737305,30.88379,86.36353,-2.5872800000000002,-177.171,19.55833,-2.983333,1.8,1
83949,0.3974609,1.114258,0.18994139999999998,19.53125,3.356934,-51.26953,89.5166,-2.636719,-178.3191,27.79167,2.441667,-4.208333,1
84159,0.0234375,0.9677734,-0.04785156,4.150391,29.11377,-3.2958979999999998,87.14355,-3.323364,-173.5071,-21.475,-41.73333,10.94167,1
84399,0.30175779999999996,1.279785,-0.2817383,37.04834,9.399414,0.3051758,84.16626,0.14282229999999999,-171.0516,16.73333,4.95,2.916667,1
84639,-0.1552734,0.7299804999999999,0.052734380000000004,-20.62988,-41.44287,-32.83691,86.67664,-3.416748,-177.2534,-19.21667,-40.91667,11.68333,1
84889,0.03857422,0.8330078,-0.09863281,-47.11914,-9.765625,29.78516,84.78149,-3.911133,177.6929,17.54167,-3.616667,4.375,1
85169,-0.0034179690000000003,1.354492,0.1601563,-41.80908,43.64014,-1.281738,88.23669,0.7745361,-176.7645,-19.31667,-42.91667,10.63333,1
85459,0.007324219000000001,0.9062500000000001,0.04003906,-33.3252,-13.12256,-31.61621,84.34753,-0.368042,-168.5193,25.71667,-6.141667,0.9583332999999999,1
85779,-0.21435549999999998,1.026855,0.1420898,-34.60693,-38.26904,-18.9209,88.36853,-6.333618,-173.6334,-22.15,-42.39167,11.64167,1
86079,0.06298828000000001,0.9570312999999999,0.05371094,-19.22607,0.3662109,26.55029,85.32532,-5.20752,178.7201,23.75,-1.908333,7.7,1
86379,0.08984375,0.9077147999999999,0.20507809999999999,-37.90283,41.44287,26.06201,87.29187,-0.4888916,-175.556,-20.725,-44.925,10.9,1
86669,-0.1362305,1.079102,0.03125,19.65332,-16.78467,-10.25391,81.62842,0.2636719,-166.9977,-22.36667,-46.79167,7.783333,1
86969,-0.19775389999999998,0.9213867,0.1948242,-19.9585,-40.64941,-26.24512,85.94604,-5.949097,-170.1343,-24.06667,-43.48333,12.075,1
87259,-0.04980469,0.8427734,-0.06787109,-24.6582,-2.258301,16.41846,86.26465,-2.883911,-176.012,18.26667,0.9500000000000001,0.9916666999999999,1
87549,-0.1777344,1.2416989999999999,0.24560549999999998,33.63037,10.62012,-53.40576,87.49512,-0.5383300999999999,-171.8536,13.85833,2.566667,-2.691667,1
87739,-0.07080078000000001,0.9428711,-0.06542969,25.32959,38.75732,12.39014,87.7478,-2.922363,-164.9323,12.24167,-1.6,-9.183333,1
87959,0.009277344,1.144531,-0.08398438,26.24512,-22.33887,-5.310059,81.70532,1.087646,-163.3118,18.95,7.058333,5.816667,1
88179,0.1933594,1.492676,0.190918,46.69189,-19.65332,54.13818,87.7478,-5.432739,-165.6244,12.975,1.7,-3.525,1
88389,0.0625,0.8222655999999999,-0.08496094,-53.34473,-0.4882813,24.23096,85.64941,-3.356323,-177.5006,-20.575,-42.06667,11.875,1
88649,0.5463867,1.197754,0.32470699999999997,46.26465,-4.516602,-46.32568,88.18726,-5.712891,-176.0175,26.96667,0.9583332999999999,0.15833329999999998,1
88879,-0.056640630000000004,1.022949,-0.03662109,-5.249023,46.38672,-12.93945,88.01147,-4.092407,-165.2179,13.30833,-0.7166667,-7.808333,1
89199,-0.3144531,1.071777,0.3188477,10.68115,-16.23535,59.93652,85.97351,-3.488159,-163.7622,-26.58333,-39.99166,9.516666,1
89489,0.06298828000000001,0.8554687999999999,-0.04345703,3.601074,-32.40967,3.112793,88.797,-2.329102,-172.8754,-21.175,-40.075,12.34167,1
89769,-0.3374023,1.102051,-0.22167969999999998,32.34863,8.544922,-1.525879,87.1875,-5.174561,-173.0511,16.3,3.683333,-1.066667,1
90019,0.1118164,0.6787109,0.06982422,27.16064,30.51758,21.05713,86.98975,-2.570801,-169.173,15.76667,-1.016667,-5.25,1
90309,0.06298828000000001,1.327148,-0.044921880000000004,23.4375,3.662109,9.338379,85.00122,0.14282229999999999,-165.7233,13.866670000000001,6.666667,1.3,1
90619,0.02392578,0.8666992,0.05371094,22.33887,-57.06787,-22.2168,88.30261,-2.329102,-178.1598,15.79167,-1.5,-2.133333,1
90909,-0.1323242,1.2573239999999999,-0.006835938000000001,52.49023,-21.48438,-5.432129,88.03345,-5.839233,178.1213,-16.76667,-43.2,12.13333,1
91229,-0.05322266,0.9565429999999999,-0.05517578,18.31055,48.33984,24.23096,88.72009,-3.982544,-172.2821,12.90833,-1.641667,-7.4,1
91539,-0.3833008,1.129395,0.3266602,45.28809,-13.97705,52.55127,86.38,-1.417236,-169.0082,30.05,0.7000000000000001,2.783333,1
91869,0.12402339999999999,0.8725586,-0.09179688,11.2915,-25.32959,-4.638672,90.51086,-2.774048,-175.578,12.85833,-1.408333,-7.558333,1
92169,0.32519529999999996,1.115723,0.2900391,-8.605957,40.95459,-59.021,90.20874,-2.944336,-175.3198,19.56667,3.4,-5.891667,1
92399,0.1074219,0.6669921999999999,0.14697269999999998,10.31494,47.30225,25.14648,86.13831,-2.471924,-168.2611,16.35,-0.6916667,-1.841667,1
92629,0.18945309999999999,1.335938,-0.2524414,9.216309,18.49365,-7.263184,84.42444,0.09887695,-163.8007,15.15,6.033333,1.15,1
92889,-0.08789063,1.149902,0.1928711,-25.02441,-58.59375,-19.53125,89.64844,-6.47644,-169.0796,16.15833,0.5833332999999999,3.166667,1
93099,-0.01806641,0.9223633,-0.1230469,-18.73779,-11.77979,41.38184,87.5885,-5.245972,-179.8242,-17.0,-42.575,12.21667,1
93339,0.09228516,0.9604492,0.2504883,-5.92041,12.39014,-45.41016,91.50513,-2.680664,-179.8077,16.275,1.933333,-2.508333,1
93629,-0.05566406,0.840332,-0.1606445,-59.87549,11.71875,-25.57373,87.09412,-3.389282,-167.3767,-19.34167,-43.9,8.116667,1
93929,0.08105469,1.138184,0.40625000000000006,72.63184,4.943848,55.29785,89.11011,-4.004517,-169.9146,15.23333,2.333333,-6.383333,1
94249,0.01269531,0.8554687999999999,-0.1679688,-48.27881,4.943848,25.26855,89.64844,-1.8402100000000001,179.6924,18.65833,-0.8250000000000001,2.958333,1
94529,-0.04541016,1.527832,0.1025391,-19.65332,11.41357,-18.12744,91.62048,1.345825,-177.2589,11.91667,1.6,2.3,1
94849,-0.1054688,0.9287109,-0.06494141,-40.77148,17.39502,-31.61621,86.41296,-2.471924,-163.3722,22.55833,-4.683333,5.208333,1
95139,0.1772461,1.688477,-0.015625,-1.159668,-47.9126,20.99609,92.09839,-7.091675,-167.4316,-21.85,-39.65,11.89167,1
95419,0.05078125,0.8598633,-0.08203125,14.34326,-29.72412,-0.6713867,90.98328,-2.6477049999999998,-175.8527,13.9,-2.5,-7.0,1
95659,0.0034179690000000003,0.8027344,0.33349609999999996,-18.37158,35.5835,-57.31201,91.59851,-1.345825,-175.188,17.64167,2.891667,-5.225,1
95969,-0.04443359,0.9335937999999999,-0.13525389999999998,-45.71533,19.65332,-18.67676,89.73083,-2.828979,-165.3113,14.45,0.40833329999999995,-2.375,1
96279,-0.1850586,0.996582,0.3388672,30.45654,-30.88379,60.05859,91.23596,-5.234985,-167.2888,15.70833,2.725,-3.683333,1
96579,0.00390625,0.8789062999999999,-0.1762695,-35.46143,-27.09961,10.31494,89.37927,-3.262939,178.9178,15.55,1.683333,0.7416667,1
96949,0.1303711,0.9174804999999999,0.1674805,-25.93994,45.10498,28.01514,89.07715,-2.581787,-171.9141,14.94167,-1.083333,1.641667,1
97239,-0.006347656,0.7797852,-0.07861328000000001,-51.14746,-5.371094,-27.46582,86.55029,-2.312622,-165.7397,24.725,-3.9333329999999997,4.575,1
97459,-0.020996090000000002,1.413086,0.1357422,-20.69092,-35.03418,3.662109,91.30188,-6.49292,-170.6012,11.525,1.441667,3.941667,1
97719,0.04345703,0.8276367,-0.08349609,1.464844,-23.19336,5.67627,91.91162,-1.867676,-178.6322,14.85833,-0.9916666999999999,-4.25,1
97929,-0.3632813,1.166016,-0.206543,28.01514,10.86426,0.42724609999999996,90.52185,-5.163574,-177.7533,14.3,5.041667,-1.308333,1
99129,-0.03369141,1.104492,0.09521484000000001,33.56934,-13.06152,-16.17432,91.91162,-5.119629,178.4729,22.34167,4.883333,-0.04166667,1
99349,0.3540039,0.7211913999999999,0.1025391,-33.5083,34.42383,60.66895,89.96155,-0.04943848,-176.7426,15.96667,-1.483333,-0.05833333,1
99599,-0.1835938,1.00293,0.05957031,7.751465,-16.8457,-19.77539,83.17749,0.3186035,-166.7505,20.3,5.4,5.208333,1
99869,-0.2392578,0.8203125,0.1640625,-23.92578,-42.48047,-26.48926,87.45117,-4.910889,-172.1887,-16.26667,-42.34167,9.941667,1
100159,-0.03125,1.117676,-0.005859375,23.80371,22.27783,5.92041,88.50586,-3.389282,-178.429,19.7,4.233333,1.825,1
100479,0.2749023,0.7719727,0.13916019999999998,-34.729,12.63428,44.06738,88.96729,-0.6536865,-175.7977,-14.56667,-42.26667,10.71667,1
100769,0.02294922,0.855957,-0.005859375,-56.57959,-10.74219,-33.63037,86.13281,-0.39550779999999996,-174.1003,21.15833,-3.2,5.975,1
101019,0.13525389999999998,1.481934,0.1103516,-12.69531,-44.31152,11.84082,90.65918,-4.779053,-179.8352,11.475,2.116667,2.558333,1
101299,0.04736328,0.9091796999999999,-0.1123047,-45.77637,-11.2915,34.42383,88.6322,-1.768799,168.2776,18.98333,-3.891667,6.45,1
101599,0.06201172,1.000488,0.12695309999999999,-25.57373,37.8418,35.88867,91.13708,1.340332,172.1228,14.025,-0.1,4.283333,1
101909,0.07226563,0.8657227,0.1098633,-37.78076,5.126953,-24.90234,85.60547,0.604248,179.8297,21.475,-3.666667,1.8666669999999999,1
102249,-0.09765625,0.9077147999999999,0.1650391,-23.37646,-52.18506,-26.18408,88.74756000000001,-4.037476,173.4192,13.44167,0.8250000000000001,6.191667,1
102469,0.026367190000000002,0.8701171999999999,-0.140625,-22.15576,-18.24951,11.71875,90.54932,-0.6701659999999999,163.3063,15.84167,0.1916667,1.45,1
102669,0.09082031,1.349121,0.31738279999999996,32.10449,-9.338379,-18.67676,92.20825,-2.702637,162.7625,18.81667,4.516667,0.1333333,1
102869,0.2246094,0.7504883,0.15869139999999998,-17.21191,29.54102,34.48486,90.20325,0.2087402,166.4648,15.61667,-0.9583332999999999,2.533333,1
103089,0.1889648,1.334961,-0.199707,33.20313,-11.16943,-4.699707,86.24817,1.323853,171.8097,-5.275,-44.55833,8.966666,1
103329,-0.07763672,1.481445,0.05859375,-2.807617,-52.73438,2.319336,90.97778,-3.565063,167.4811,11.58333,1.916667,4.116667,1
103579,0.09033203000000001,0.9545897999999999,-0.08886719,4.272461,-44.55566,3.78418,92.91138,0.0,156.3904,14.95,-1.225,-5.158333,1
103829,0.1674805,0.9389647999999999,0.3442383,-4.02832,23.55957,-57.00684,94.40552,0.38452149999999996,155.2148,17.69167,2.375,-5.591667,1
104099,-0.12060549999999999,0.8696288999999999,-0.1396484,-48.21777,24.90234,-15.50293,91.32935,-0.8349609,166.1462,-2.541667,-42.44167,10.38333,1
104389,0.05810547,0.8007812999999999,0.4057617,28.25928,-52.6123,32.53174,90.68115,-1.757813,159.8401,14.825,2.541667,-6.008333,1
104709,0.07128906,0.7670897999999999,-0.1723633,-25.93994,-1.89209,12.146,90.88989,0.4174805,144.8712,4.791667,-42.78333,5.558333,1
104999,-0.05175781,1.5019529999999999,0.17822269999999998,23.37646,0.6103516,-57.80029,94.07043,2.581787,149.101,5.683333,-39.75834,8.991667,1
105279,-0.1318359,0.8432617,-0.030273440000000002,11.53564,46.20361,-0.793457,93.01025,-1.7303469999999999,157.2803,14.03333,-0.7416667,-7.108333,1
105519,-0.3740234,1.0625,0.4794922,37.59766,-13.42773,50.10986,91.98303,0.1043701,157.522,-0.1083333,-41.56667,10.35,1
105829,0.105957,0.8769530999999999,-0.137207,-7.507324,-35.94971,12.81738,93.36182,1.439209,144.5966,16.56667,0.7666666999999999,-4.166667,1
106139,0.3500977,1.02002,0.3457031,-1.6479489999999999,36.92627,-62.01172,94.68567,1.411743,144.4263,19.825,2.95,-4.258333,1
106449,-0.04589844,0.8730469,-0.1342773,-59.75342,29.90723,-23.25439,92.23572,-0.6317138999999999,155.6213,2.208333,-44.11666,7.416667,1
106799,-0.2387695,0.9140625,0.15039059999999999,-29.78516,-52.36816,-28.56445,92.07092,-2.197266,147.0685,3.625,-43.9,7.633333,1
107069,0.04003906,0.7807617,-0.175293,-51.69678,-21.60645,18.73779,92.83997,1.208496,136.5875,21.6,-0.7416667,4.191667,1
107329,-0.1679688,1.420898,0.1328125,-50.41504,33.08105,-12.146,95.74585,6.520386,138.7408,10.45,1.9583329999999999,2.25,1
107589,-0.1723633,0.8598633,-0.11425779999999999,-28.74756,43.21289,-20.62988,94.38354,-0.01647949,147.7551,15.78333,0.2333333,-5.491667,1
107799,0.3041992,1.348145,-0.3369141,11.84082,-5.67627,-0.793457,91.54358,3.328857,146.2006,15.26667,6.5,0.9833333999999999,1
108009,-0.03759766,0.7529296999999999,0.0009765625,34.97314,-72.63184,-39.85596,93.6145,2.422485,131.9238,11.88333,-42.175,6.033333,1
108269,0.1079102,1.056152,0.05712891,-10.86426,13.12256,28.93066,91.40076,0.8679199,125.6561,23.925,-3.383333,3.833333,1
108549,0.04443359,0.9536133,0.1113281,-47.48535,13.79395,44.12842,92.93335,4.680176,130.6714,12.25,-42.05833,5.708333,1
108809,0.08984375,1.097656,-0.06933594,39.24561,-21.24023,8.789063,89.25293,4.004517,133.3795,13.06667,-42.23333,4.925,1
109119,0.1323242,1.466797,0.1733398,48.21777,-51.02539,38.39111,93.75732,-0.7965088,128.9246,13.08333,1.658333,-2.066667,1
109369,0.05615234,0.8315429999999999,-0.07958984,22.76611,-34.60693,-5.615234,93.44971,3.026733,119.8663,13.84167,-2.108333,-8.008333,1
109599,0.4082031,1.171387,0.1923828,22.33887,23.68164,-65.36865,94.77356,1.1920169999999999,118.3228,22.05833,1.183333,-5.966667,1
109849,-0.1054688,0.8916016,-0.1318359,-19.47021,32.34863,-15.13672,92.10938,0.6481933999999999,128.5785,15.675,0.75,-4.583333,1
110189,-0.30957029999999996,0.9267578,0.34814449999999997,-9.643555,-38.20801,51.2085,93.70239,1.565552,127.9742,20.45833,2.466667,-5.5,1
110469,0.002929688,0.9804687999999999,-0.1445313,2.197266,-29.54102,19.104,93.87817,3.092651,114.3402,16.9,-0.2166667,-3.075,1
110799,0.2592773,0.9277344,0.37988279999999996,-7.019043,28.38135,-47.72949,95.02075,2.872925,112.0605,16.48333,0.875,-6.766667,1
111059,-0.1601563,0.9086913999999999,-0.15087889999999998,-20.38574,5.432129,-23.07129,90.58777,0.7415771,126.4801,16.5,1.083333,-2.45,1
111439,-0.25,1.052246,0.16650389999999998,-35.7666,-39.61182,-28.01514,93.05969,-0.5493163999999999,117.9987,14.75833,-1.7083329999999999,4.9,1
111729,0.02832031,0.8007812999999999,-0.2431641,-45.16602,-17.7002,10.25391,92.87292,3.619995,109.1547,20.01667,0.9166667,1.55,1
111939,0.4018555,1.086914,0.3930664,37.23145,-0.5493163999999999,-27.52686,92.34009,0.8404541,109.2975,24.64167,0.8250000000000001,-0.9500000000000001,1
112159,0.2524414,0.6977538999999999,0.10693359999999999,-16.90674,27.28271,26.61133,90.95581,2.087402,112.4121,14.25833,-1.133333,-0.7666666999999999,1
112349,0.1479492,1.32959,-0.09716797,48.27881,-0.8544921999999999,6.04248,89.06067,5.169067,117.0923,22.13333,-36.025,-1.283333,1
112619,0.02197266,1.277344,0.1230469,-31.31104,-60.4248,-1.586914,91.57104,-0.6481933999999999,109.9072,12.11667,1.233333,2.275,1
112869,0.03564453,0.8969727,-0.02148438,-38.20801,-3.540039,45.10498,88.28613,0.8898925999999999,98.98682,23.43333,-4.375,6.583333,1
113169,0.25537109999999996,0.7827147999999999,0.3544922,-23.01025,33.87451,-35.52246,91.8512,1.9885249999999999,103.9417,20.99167,1.433333,-2.625,1
113399,-0.04296875,0.9033203,-0.1450195,-56.64063,39.61182,-24.4751,89.73083,1.411743,116.4496,14.33333,1.975,-4.591667,1
113689,0.1123047,0.7485352,0.3769531,19.9585,-23.55957,27.03857,88.73657,-0.4229736,114.3842,15.5,3.575,-5.4,1
113989,0.01464844,0.8759766,-0.1791992,-32.04346,-14.89258,9.70459,90.78552,1.741333,103.9417,18.43333,0.7666666999999999,2.8,1
114279,-0.2836914,1.500488,0.1616211,-14.83154,5.554199,-56.33545,92.26868,6.47644,106.3422,11.225,2.55,-2.775,1
114579,-0.06103516,0.8930663999999999,-0.06201172,-56.03027,2.01416,-37.96387,86.87988,3.735352,115.1038,22.14167,-36.58333,-5.641667,1
114889,-0.13916019999999998,1.11377,0.1479492,-36.43799,-65.55176,-15.625,90.49988,-1.010742,106.4465,13.54167,0.225,3.816667,1
116209,0.08398438,0.8432617,-0.09130859,18.98193,-44.7998,0.12207029999999999,90.47241,1.829224,93.76282,15.00833,-1.808333,-7.483333,1
116519,0.6333008,1.404785,0.34179689999999996,48.21777,34.79004,-76.0498,91.95007,-0.32409669999999996,91.95007,20.25,2.066667,-3.025,1
116859,-0.1054688,0.8823242,-0.1577148,-42.29736,39.67285,-20.75195,88.52783,0.4504395,106.6113,14.15,2.216667,-4.441667,1
117049,0.14306639999999998,1.231445,-0.2202148,-1.464844,-0.9155272999999999,15.50293,86.35803,2.900391,105.7983,14.80833,6.591667,3.45,1
117249,-0.1967773,0.9243163999999999,0.1645508,-35.46143,-29.84619,-27.28271,88.87939,-4.169312,102.431,14.1,-0.3333333,6.591667,1
117449,-0.07226563,0.9541016,-0.1435547,-17.94434,-10.25391,18.55469,91.21399,-0.3790283,97.39929,13.975,-0.8333332999999999,2.691667,1
117669,0.6489258,1.450195,0.2753906,45.47119,25.32959,-62.37793,92.77954,-0.6811522999999999,95.22949,22.14167,1.9583329999999999,-6.008333,1
117879,-0.1708984,0.8637695,-0.05761719,-18.00537,49.25537,-13.18359,88.90137,-0.01647949,111.3684,18.01667,-43.075,-3.433333,1
118119,0.2319336,1.15918,-0.24121089999999998,24.10889,-1.342773,5.981445,84.58923,3.718872,110.1874,19.65833,9.175,8.8,1
118409,-0.21337889999999998,0.6948242,0.06640625,46.32568,-68.54248,-43.45703,88.65967,0.3570557,102.0135,20.625,-43.71667,-8.966666,1
118669,-0.0625,0.9985352,0.05810547,-24.59717,-7.93457,32.2876,86.73706,0.1318359,94.70764,24.65833,0.125,3.925,1
118889,0.09814453000000001,0.9580078,0.11425779999999999,-28.32031,30.70068,29.90723,89.6814,2.39502,101.217,21.40833,-42.63334,-6.016667,1
119199,0.0625,0.8540038999999999,-0.1279297,-55.7251,5.493164,-19.59229,88.00598,1.312866,106.3422,17.025,-0.8083332999999999,3.841667,1
119439,0.11425779999999999,1.645996,0.07421875,33.99658,-52.97852,31.12793,92.63672,-2.268677,100.7281,12.55,1.4,-2.8,1
119699,-0.03613281,0.7871094,-0.06738281,-53.34473,-9.094238,33.3252,87.61597,0.5328369,85.95154,21.51667,-41.3,-16.51667,1
119969,0.41943359999999996,1.22998,0.2978516,19.28711,27.771,-57.86133,90.16479,0.1812744,87.56653,24.75,1.766667,-4.183333,1
120229,-0.10888669999999999,0.9228516,-0.07226563,-34.79004,38.81836,-16.96777,87.87964,0.2142334,99.13513,13.36667,1.125,-6.858333,1
120539,-0.1376953,1.180176,0.6005859,29.66309,-35.27832,65.979,87.56653,-1.082153,96.85547,17.15,4.075,-5.825,1
120869,0.07617188,0.8378905999999999,-0.08398438,-21.30127,-18.12744,16.29639,88.19275,-0.2416992,84.16077,15.15,1.8333329999999999,-1.641667,1
121179,-0.2011719,1.45752,0.1850586,-26.12305,26.36719,-46.14258,89.24194,3.048706,87.41821,11.33333,3.216667,-0.6000000000000001,1
121399,-0.1323242,0.8793945,-0.05322266,-5.493164,50.04883,-7.141113,88.3905,-0.9063721,99.37683,13.75,-1.85,-7.658333,1
121599,0.15039059999999999,1.235352,-0.11083979999999999,37.90283,-23.4375,0.9155272999999999,84.39697,3.878174,100.2448,18.43333,9.933333,9.933333,1
121809,0.006835938000000001,1.316406,0.2607422,-38.51318,-10.68115,4.577637,89.51111,-4.614258,98.93188,15.09167,1.591667,2.258333,1
122019,0.12255859999999999,0.6542969,-0.024902340000000002,-8.544922,-49.80469,5.493164,88.10486,0.368042,88.50037,14.50833,-0.8166667,-3.8083329999999997,1
122239,0.3999023,1.099121,0.3994141,-22.03369,36.31592,-78.79639,90.39551,0.08239746,87.61047,14.75833,2.641667,-0.5833332999999999,1
122519,-0.1376953,0.9018554999999999,-0.1728516,-38.45215,26.24512,-24.71924,89.04968,0.6262207,105.9357,22.81667,-36.54167,-2.941667,1
122789,0.01416016,0.9267578,0.08447266,12.39014,-5.126953,27.22168,87.00073,3.411255,104.2108,27.45,3.875,7.266667,1
123039,0.1362305,0.8642578,-0.09521484000000001,22.64404,-64.69727,-15.99121,91.49414,1.708374,93.36182,23.85,-36.825,-8.525,1
123329,0.5961913999999999,1.275879,0.3457031,43.09082,7.263184,-56.39648,91.40076,-0.3076172,89.8407,24.43333,-36.4,-9.533334,1
123619,0.21435549999999998,0.7275391,0.1337891,17.27295,65.49072,39.0625,88.58276,0.7745361,97.91016,15.36667,-0.9416667,-1.9583329999999999,1
123849,0.19824219999999998,1.275391,-0.1411133,47.85156,-10.19287,11.23047,85.70984,3.306885,103.6725,22.7,-36.64167,-5.233333,1
124159,-0.06738281,0.6806641,0.1074219,45.22705,-56.21338,-42.11426,89.41223,-0.07141113,95.16907,13.05,-1.283333,-0.65,1
124469,0.0,1.283203,0.07519531,27.16064,1.708984,-26.48926,90.71411,-1.329346,91.77979,24.55,4.683333,-0.775,1
124779,-0.1123047,0.8686522999999999,-0.03320313,6.713867,48.40088,1.586914,89.07166,-0.19226069999999998,102.7826,12.9,-0.9583332999999999,-7.466667,1
125109,-0.3920898,1.17627,0.5073242,49.80469,-30.94482,51.57471,86.21521,2.839966,102.1564,27.78333,1.083333,5.891667,1
125379,-0.015136720000000001,0.7529296999999999,-0.046875,22.76611,-43.27393,-4.394531,88.36304,1.433716,88.58276,14.20833,-0.8,-6.875,1
125749,0.09228516,1.2416989999999999,0.2387695,-46.69189,28.13721,2.929688,88.74756000000001,3.394775,88.90137,11.95833,1.6,4.758333,1
126039,-0.1054688,0.8730469,-0.09130859,-42.48047,37.78076,-19.28711,87.70935,-0.3625488,99.06921,15.35833,1.016667,-3.591667,1
126249,0.03076172,1.170898,-0.03857422,14.89258,-1.037598,18.43262,85.34729,3.339844,99.01978,17.825,8.108334,3.133333,1
126469,0.08886719,0.918457,0.015136720000000001,30.94482,-52.73438,-24.96338,87.5061,0.1043701,89.0332,14.48333,-2.083333,-4.1,1
126729,0.05126953,0.8945312999999999,0.08349609,12.146,12.93945,17.8833,83.32581,-2.636719,85.81421,27.60833,3.858333,8.4,1
126959,0.25488279999999996,0.8198242,0.2749023,-20.1416,61.76758,30.33447,87.03369,2.334595,91.1261,14.54167,-0.2333333,-0.48333329999999997,1
127269,-0.2402344,1.207031,0.04394531,17.21191,-28.07617,0.6713867,83.63892,3.158569,100.4919,22.525,-36.775,-8.308333,1
127559,-0.37988279999999996,0.6948242,0.1733398,-5.065918,-57.12891,-51.14746,87.16553,-3.087158,94.40552,20.24167,-39.11666,-10.09167,1
127829,-0.0390625,0.7773437999999999,-0.1650391,-51.3916,-2.929688,20.26367,88.0719,0.1702881,84.19922,19.55,-1.541667,4.283333,1
128079,0.01025391,1.314941,0.18261719999999998,-54.50439,54.26025,9.460449,90.63171,4.87793,89.63196,24.025,-36.23333,-9.85,1
128389,-0.1152344,0.9086913999999999,0.03222656,-52.12402,-8.056641,-33.69141,84.32007,2.867432,104.3207,25.28333,-4.1,3.833333,1
128699,-0.1337891,1.066895,0.2646484,-49.37744,-47.36328,-7.324219,89.46716,-3.262939,97.18506000000001,12.25,1.491667,5.725,1
128979,0.07861328000000001,0.9765625,0.1030273,-6.835938,-7.995605,20.75195,86.6272,-2.103882,84.47388,21.35833,-39.11666,-14.78333,1
129269,0.2851563,0.8530272999999999,0.09375000000000001,-25.81787,28.86963,49.07227,89.58252,3.724365,89.90662,24.44167,-35.75834,-9.683333,1
129569,-0.07910156,1.0854489999999999,0.02294922,42.66357,-14.95361,0.0,85.57251,4.575806,97.42126,25.15833,-34.93333,-8.391666,1
129879,-0.2070313,0.6650391,0.121582,3.662109,-62.43896,-44.6167,90.03845,-0.5712891,88.70361,23.775,-36.81667,-11.25833,1
130209,-0.3139648,1.12207,-0.11621089999999999,57.49512,14.16016,0.7324219,88.50037,-1.686401,82.2876,16.30833,6.708333,-1.8,1
130469,0.1235352,1.061035,0.1801758,-37.10938,28.25928,36.62109,89.5166,3.55957,86.52283,11.54167,-0.04166667,5.258333,1
130689,-0.1152344,0.8662109,-0.01416016,-13.48877,-10.0708,-30.39551,83.79272,3.383789,95.13062,25.675,-35.19167,-9.833333,1
130929,-0.01025391,1.473633,0.3203125,53.89404,-25.08545,62.25586,90.51636,-2.515869,91.3678,14.93333,2.758333,-1.575,1
131179,-0.02148438,0.8647461,-0.17871089999999998,-27.70996,-6.591797,23.49854,90.0769,-0.19775389999999998,79.57947,18.44167,-0.44166669999999997,2.658333,1
131489,-0.1699219,1.396484,0.20507809999999999,-45.8374,33.14209,-40.71045,91.75781,5.6524659999999995,83.48511,26.63333,-34.86666,-11.58333,1
131779,-0.12451169999999999,0.8823242,-0.09423828000000001,-25.81787,36.86523,-20.44678,90.01099,-0.1538086,93.33984,14.95833,-0.44166669999999997,-8.3,1
132989,-0.08203125,0.9594727,-0.02050781,30.45654,-16.8457,-5.371094,84.74854,3.636475,94.72961,26.13333,-35.66667,-8.408334,1
133279,0.1401367,1.592285,0.19775389999999998,19.28711,-32.2876,37.78076,91.18652,-3.581543,91.47766,11.55,2.091667,0.48333329999999997,1
133519,0.01904297,0.8481445,-0.13134769999999998,-64.02588,-8.056641,26.97754,88.23669,-0.28564449999999997,75.42664,17.725,-2.75,6.541667,1
133799,-0.005371094000000001,1.264648,0.1806641,-39.12354,44.92188,18.06641,90.93384,4.471436,80.91431,27.15,-36.01667,-13.55,1
134079,-0.1298828,0.8891602,-0.02294922,-40.46631,46.63086,-19.59229,89.47815,-0.1483154,91.85669,14.15833,-0.5333333,-8.75,1
134349,-0.15087889999999998,1.017578,0.49658199999999997,-5.615234,-34.66797,78.49121,88.86841,-0.1812744,90.86792,18.68333,5.066667,-4.341667,1
134609,0.08740234,0.7573242,-0.10693359999999999,-13.67188,-34.85107,8.850098,90.48889,-0.9228516,78.67859,25.175,-40.08333,-16.99167,1
134909,-0.11425779999999999,1.166992,0.2895508,21.48438,28.74756,-64.81934,92.74658,2.241211,82.63367,29.11667,-37.10833,-12.03333,1
135199,-0.137207,0.9501953,-0.06494141,22.82715,64.14795,7.080078,92.60925,-1.268921,93.55408,13.88333,-3.516667,-6.383333,1
135519,0.2397461,1.298828,0.3515625,41.07666,-8.605957,40.46631,91.04919,-3.57605,94.80103,24.7,-42.75,-7.066667,1
135849,0.044921880000000004,0.887207,-0.22070309999999999,-38.57422,-16.11328,14.77051,91.09863,-0.5218505999999999,83.42468,16.66667,-0.2083333,3.141667,1
136119,0.5161133,1.280762,0.3305664,47.30225,20.1416,-60.85205,92.17529,-0.802002,84.35852,27.13333,3.441667,-3.291667,1
136329,0.0034179690000000003,0.9335937999999999,-0.02148438,-10.92529,32.77588,-13.48877,90.82397,0.2142334,93.03772,26.725,-36.65,-8.45,1
136559,0.022460940000000002,1.372559,-0.1079102,26.30615,-2.868652,2.929688,86.97327,4.685669,94.57581,18.0,9.716666,8.391666,1
136809,-0.24414059999999999,0.7265625,0.1376953,26.61133,-60.2417,-39.00146,89.04968,0.09338379000000001,85.95703,25.875,-36.96667,-13.275,1
137049,0.09570313,0.7612304999999999,-0.06347656,-61.03516,-12.02393,35.88867,85.91309,-1.049194,77.37671,18.61667,-2.391667,6.416667,1
137339,0.13476559999999999,1.237793,0.1650391,-15.86914,30.63965,35.52246,92.06543,4.350586,78.60718,27.14167,-35.48333,-14.025,1
137629,-0.10839839999999999,0.9267578,0.05224609,-29.72412,-8.605957,-31.67725,86.84143,2.719116,90.83496,19.95833,-2.4,-1.475,1
137949,-0.3037109,1.109863,0.1948242,-33.26416,-29.72412,-4.943848,91.26892,-3.279419,88.05542,24.4,-37.825,-10.525,1
138229,0.1411133,0.8955078,0.03857422,-39.67285,-3.356934,27.22168,87.84668,-1.395264,77.72278,21.64167,-2.525,5.316667,1
138549,0.27880859999999996,1.006348,0.159668,-41.1377,48.27881,49.62158,91.4447,3.378296,83.38623,26.80833,-35.63334,-10.20833,1
138839,-0.2822266,0.8457030999999999,0.01074219,7.629395,-13.73291,-14.09912,85.70984,3.054199,94.021,27.26667,-35.15833,-8.05,1
139119,0.20214839999999998,1.560059,0.2514648,52.24609,-27.58789,65.24658,91.99951,-3.66394,89.88464,12.475,3.116667,-2.991667,1
139359,-0.01806641,0.8183594,-0.1420898,-52.06299,-1.464844,17.7002,90.92834,0.24719239999999998,78.85986,25.71667,-37.775,-15.25,1
139679,-0.011230470000000001,1.6323239999999999,0.078125,-5.126953,40.2832,-39.0625,93.44971,2.9168700000000003,86.79749,12.15,2.308333,-1.341667,1
139989,-0.1611328,0.7768554999999999,-0.046875,-35.7666,-22.76611,-35.64453,88.04993,3.746338,98.70117,20.79167,-4.616667,1.9916669999999999,1
140319,-0.24902339999999998,1.134277,0.2001953,-51.75781,-106.3843,-16.11328,93.65295,2.021484,81.49109,14.53333,-1.041667,3.533333,1
140559,0.137207,0.6000977,0.002441406,-4.760742,-70.86182,36.86523,88.33008,4.169312,43.97827,22.83333,-34.725,-37.675,1
140789,-0.3608398,1.530762,0.42041019999999996,28.86963,-80.26123,-54.32129,95.20752,8.267212,33.37097,12.80833,2.133333,-6.175,1
141039,0.19384769999999998,0.8808594,-0.2119141,-27.22168,-91.00342,-25.87891,88.41248,8.937378,9.321899,11.275,-30.84167,-53.29167,1
141279,-0.2236328,1.083008,0.3984375,138.3057,-32.34863,20.56885,88.42346,10.5304,-1.472168,26.44167,1.933333,-2.525,1
141549,-0.08496094,0.9047852,-0.02050781,10.31494,-152.0386,-14.28223,86.92383,7.1521,-21.75842,16.26667,-3.383333,3.316667,1
141779,-0.09130859,1.268066,-0.1396484,33.93555,-53.28369,16.11328,82.96326,4.5593259999999995,-56.15662,-35.95833,-31.175,-49.125,1
142049,0.2036133,0.6181641,0.1113281,52.24609,-4.089355,20.87402,84.31458,5.839233,-71.44409,-41.06667,-33.4,-41.0,1
142349,0.184082,0.8032227,0.0004882813,-7.080078,-1.220703,-32.89795,83.03467,6.146851,-73.87207,22.34167,-6.491667,2.833333,1
142599,0.011230470000000001,1.05127,0.1201172,-32.22656,-90.63721,-5.126953,85.27588,1.065674,-84.20471,11.625,-0.06666667,1.875,1
142879,-0.01220703,0.9770508,0.07666016,-21.05713,-9.277344,21.48438,84.67163,1.598511,-97.85522,22.075,-7.05,3.641667,1
143209,0.04589844,0.8544921999999999,0.1298828,-39.79492,49.56055,56.03027,86.10535,5.72937,-92.02148,14.63333,-0.31666669999999997,4.25,1
143489,0.01757813,1.15918,-0.0009765625,7.263184,-13.79395,-6.835938,84.60022,4.421997,-83.91907,24.8,5.583333,5.516667,1
143799,-0.01074219,0.8115234,0.10058589999999999,-23.92578,-53.34473,-23.49854,85.63293,-0.5932617,-94.53735,-48.79167,-31.50833,-21.875,1
144089,-0.00390625,1.406738,-0.030273440000000002,24.90234,28.19824,13.12256,83.07861,-1.494141,-99.85474,21.59167,4.808333,1.391667,1
144419,0.1181641,0.5004883,0.2001953,8.422852,46.56982,29.05273,84.10583,1.516113,-90.89539,15.05,-1.891667,5.383333,1
144729,0.2470703,1.337402,-0.37255859999999996,0.4882813,13.91602,10.43701,84.54529,3.389282,-83.85864,16.95833,7.866667,3.2,1
145059,-0.015136720000000001,0.7089844,0.02148438,39.0625,-52.30713,-40.40527,83.60596,-0.4504395,-96.33911,15.98333,-1.233333,4.75,1
145269,-0.1235352,1.243164,-0.3833008,30.82275,14.4043,-14.22119,86.47888,-0.9503174,-98.48694,-47.45833,-31.84167,-18.325,1
145509,-0.1875,0.9067383,0.21728519999999998,-46.32568,44.6167,43.21289,87.03369,4.707642,-90.9613,13.15,0.7416667,6.383333,1
145779,-0.04052734,0.8759766,-0.1679688,-13.24463,15.80811,-11.2915,86.47888,0.39550779999999996,-83.36975,21.19167,0.9416667,2.0,1
145999,0.1464844,1.075195,-0.24560549999999998,7.568359,22.70508,12.69531,85.79224,3.323364,-83.13904,14.225,8.233334,-0.7666666999999999,1
146209,0.09912109000000001,0.7568359,0.02001953,21.1792,-39.42871,-25.39063,85.93506000000001,0.9393311,-93.46619,14.7,-2.2,-1.391667,1
146499,0.011230470000000001,1.291504,-0.1323242,30.63965,-10.92529,-4.150391,86.2207,-0.9008788999999999,-96.38855,-45.28333,-34.36666,-20.275,1
146759,0.10107419999999999,0.7045897999999999,0.1328125,-16.96777,34.05762,50.72021,85.45166,2.032471,-89.75281,15.51667,-1.266667,2.408333,1
147009,0.1098633,1.296387,-0.04296875,25.32959,-2.685547,2.197266,84.14978,4.086914,-84.03992,-42.375,-35.99166,-28.63333,1
147299,-0.02783203,0.6264647999999999,0.09765625,-11.04736,-20.50781,-43.70117,84.56726,-0.02197266,-92.29614,-44.83333,-35.48333,-23.55833,1
147579,-0.02587891,1.041992,0.02001953,-36.07178,-5.7983400000000005,30.09033,84.32007,-0.4504395,-93.8562,25.525,-6.491667,6.583333,1
147819,-0.10693359999999999,0.9785155999999999,0.1875,-47.79053,34.66797,23.68164,86.02844,3.762817,-87.47314,-42.85,-35.51667,-27.41667,1
148129,-0.1791992,1.115234,0.07519531,-11.53564,-4.760742,-20.44678,82.82593,3.691406,-79.6344,22.94167,5.55,7.741667,1
148439,-0.056640630000000004,0.7612304999999999,0.1767578,-11.04736,-56.09131,-22.46094,84.50134,-0.368042,-89.84619,12.225,-0.8250000000000001,3.416667,1
148749,-0.05615234,1.347656,-0.1416016,20.75195,32.83691,-3.540039,84.07837,-1.203003,-93.64746,16.8,5.65,2.216667,1
149079,0.1455078,0.6987304999999999,0.01611328,39.73389,39.0625,24.71924,85.89661,1.010742,-85.57251,16.46667,-2.158333,-2.975,1
150369,-0.175293,1.02002,0.02978516,-35.64453,-11.65771,-35.82764,84.94629,1.7028809999999999,-76.72302,26.475,-7.275,2.208333,1
150589,-0.2514648,0.6401367,0.3706055,-14.70947,-20.01953,12.51221,86.15479,0.2362061,-78.08533,19.61667,1.275,-3.6,1
150809,-0.002929688,0.6206054999999999,0.01025391,25.20752,-30.15137,-26.67236,85.62195,1.054688,-86.85791,16.16667,-2.65,-1.1,1
151029,0.09472656,1.274902,-0.0009765625,36.01074,-22.64404,-17.45605,87.49512,-1.148071,-89.599,-48.73333,-32.44167,-23.75,1
151259,0.1420898,0.7187500000000001,0.1411133,-42.48047,36.13281,46.38672,85.36926,3.02124,-83.71582,12.85833,-0.5166666999999999,2.45,1
151499,0.009277344,0.9863280999999999,-0.05859375,-45.95947,-17.51709,-16.29639,83.68286,2.543335,-78.11279,18.9,-2.691667,5.675,1
151719,0.13476559999999999,1.432129,0.03613281,42.5415,-50.84229,14.22119,85.70984,-0.8898925999999999,-84.38049,-50.49166,-31.64167,-25.09167,1
151969,0.05078125,0.8623046999999999,-0.07617188,18.00537,-16.54053,2.563477,86.76453,1.5325929999999999,-90.68665,15.15833,-0.15833329999999998,-6.241667,1
152249,0.07080078000000001,0.7143554999999999,0.3286133,-29.11377,62.37793,-44.43359,87.36328,1.203003,-87.01721,-46.0,-34.175,-21.59167,1
152519,-0.128418,0.859375,-0.1567383,-14.64844,28.74756,-9.82666,84.44092,0.4174805,-72.00989,-43.09167,-33.06667,-31.19167,1
152819,-0.02001953,1.390625,-0.0234375,33.02002,-9.277344,15.44189,84.01794,3.114624,-74.28955,9.641666,5.85,0.2916667,1
153099,0.01757813,0.7114258,0.001953125,9.887695,-41.80908,-17.94434,84.96826,2.268677,-87.41272,15.3,-2.258333,-2.675,1
153329,0.2119141,1.353027,0.3671875,18.49365,7.324219,-30.82275,86.16577,-0.19226069999999998,-89.61548,-42.04167,-34.60833,-21.4,1
153639,0.1191406,0.637207,0.1445313,-21.30127,31.25,26.48926,84.09485,1.801758,-82.73254,13.875,-0.8333332999999999,1.716667,1
153879,0.4472656,1.315918,-0.3525391,27.70996,-8.850098,19.59229,81.87012,2.521362,-78.349,13.30833,8.441667,-3.491667,1
154169,-0.02441406,0.7172852,0.10058589999999999,13.3667,-31.86035,-24.84131,84.24316,0.1647949,-89.01123,-41.95833,-34.5,-22.10833,1
154469,0.04736328,1.474609,0.01367188,37.96387,7.507324,-14.52637,85.13855,-1.752319,-91.14258,-41.70833,-34.825,-23.25,1
154809,-0.05078125,0.8134766,-0.052734380000000004,15.44189,30.82275,2.868652,85.177,-0.4229736,-78.88184,18.43333,0.2583333,-8.608334,1
155049,0.33251949999999997,1.322266,-0.33349609999999996,13.30566,-9.521484,1.6479489999999999,80.39795,3.872681,-78.25562,13.46667,7.7,-3.075,1
155249,0.23779299999999998,1.312012,0.05712891,-5.187988,-68.78662,1.8310549999999999,83.573,-1.082153,-84.58923,12.225,2.066667,0.48333329999999997,1
155469,-0.04003906,1.131348,-0.03564453,-30.45654,-3.2958979999999998,34.48486,82.5238,-1.279907,-90.42847,-44.05833,-32.49166,-24.8,1
155759,0.08740234,0.7021484,0.1435547,-25.81787,18.79883,41.99219,83.85315,3.317871,-85.11658,-40.75,-34.45,-27.84167,1
155999,0.05029297,0.8769530999999999,-0.1103516,-35.7666,11.59668,-18.79883,85.56702,0.6152344,-79.28833,22.35833,-1.1,1.95,1
156269,0.16259769999999998,1.785645,-0.006835938000000001,4.882813,-49.49951,25.02441,87.96204,-2.702637,-83.56201,-44.13334,-32.95,-25.40833,1
156559,0.02441406,0.9047852,-0.015136720000000001,-31.86035,5.310059,36.62109,84.67712,-0.5383300999999999,-91.50513,25.74167,-6.633333,5.758333,1
156909,-0.1650391,1.007324,0.1884766,-48.0957,55.96924,29.60205,86.18225,3.03772,-81.72729,11.26667,0.30000000000000004,4.333333,1
157159,-0.06005859,0.9155272999999999,-0.1289063,-6.164551,18.98193,-12.75635,84.61121,0.5548096,-72.89978,20.26667,0.5916667,-0.6666667,1
157389,-0.06982422,0.8925780999999999,0.40380859999999996,25.63477,-36.37695,21.30127,84.96277,-0.28564449999999997,-75.99792,13.50833,3.1,-2.725,1
157699,0.02783203,0.8447266,-0.052734380000000004,-32.10449,1.464844,17.76123,83.92456,0.7745361,-87.48413,22.74167,-4.075,3.6,1
158009,-0.1210938,1.390137,0.00390625,-34.17969,54.74854,-1.525879,85.74829,3.537598,-80.36499,8.058333,3.008333,3.0,1
158339,-0.06689453000000001,1.053223,0.011230470000000001,-23.31543,-16.17432,-31.43311,83.71033,3.328857,-71.88904,22.00833,-4.266667,0.7833333,1
158619,0.09863281,0.9311522999999999,0.18164059999999999,-37.59766,-51.57471,-21.30127,86.17126,-1.680908,-77.12952,13.21667,-0.8250000000000001,5.141667,1
158939,0.10839839999999999,1.158691,0.11621089999999999,-3.112793,3.2958979999999998,11.59668,83.97949,-1.049194,-86.57776,22.6,4.666667,3.55,1
159259,0.1020508,0.7255859,0.1259766,-25.45166,31.37207,20.44678,85.07813,1.450195,-78.75,13.98333,-0.3416667,5.55,1
159499,-0.04931641,0.9472655999999999,0.005371094000000001,-49.07227,-7.141113,-36.31592,84.13879,1.63147,-74.20715,26.425,-5.65,1.466667,1
159699,0.1396484,1.352539,-0.06933594,-30.0293,-66.46729,7.263184,85.16052,-1.170044,-79.5575,-49.225,-33.01667,-25.96667,1
159969,0.06445313,0.9233397999999999,-0.1323242,-1.586914,-26.67236,9.94873,85.18799,0.6317138999999999,-87.73682,19.025,1.783333,-1.3333329999999999,1
160179,0.07568359,0.7963867,0.4365234,2.01416,39.61182,-29.84619,86.14929,3.02124,-84.67163,-45.15,-34.75834,-21.125,1
160429,0.06591797,0.7495117,-0.07519531,29.90723,40.95459,17.63916,85.52307,-0.1538086,-76.36597,18.675,-0.8,-2.041667,1
160709,-0.1557617,0.6811522999999999,0.3032227,0.6713867,-15.68604,16.29639,88.08289,-0.44494629999999996,-73.39417,-44.56667,-32.74166,-25.75833,1
160979,-0.03125,0.8662109,-0.1450195,-4.455566,-19.04297,11.96289,87.88513,0.8349609,-82.63367,-43.70833,-33.88334,-21.90833,1
161289,0.253418,1.291504,0.199707,30.09033,5.554199,-33.75244,88.82996,-1.549072,-83.71582,23.05,5.891667,3.991667,1
161529,-0.05175781,0.7685546999999999,-0.04589844,7.324219,40.83252,2.807617,87.70386,-0.46691889999999997,-72.61963,-41.06667,-33.85,-29.85833,1
161809,-0.47509769999999996,0.7944336,0.3974609,-23.31543,-0.7324219,20.56885,86.32507,0.5053711,-71.64734,25.09167,-2.058333,-0.775,1
162129,0.04443359,0.8916016,-0.10644529999999999,11.2915,-18.73779,9.643555,86.66565,1.263428,-82.83691,-41.525,-35.625,-24.15,1
162399,-0.02050781,0.8486328,0.37988279999999996,-14.83154,28.93066,-33.69141,87.40723,3.411255,-80.46387,-38.50834,-37.63334,-25.03333,1
162709,0.01416016,0.8076171999999999,-0.05859375,21.72852,27.16064,10.37598,86.23718,0.368042,-74.55322,16.425,-0.24166669999999998,-5.45,1
162939,-0.36425779999999996,1.03418,0.31738279999999996,-26.12305,-13.61084,26.00098,86.24268000000001,0.5603026999999999,-73.02063,-40.325,-35.60833,-28.24167,1
163239,0.00390625,0.8515625,-0.08740234,25.57373,-12.69531,9.643555,86.23169,1.708374,-83.90808,-40.34167,-36.89167,-22.88333,1
163549,0.07421875,0.8012695,0.4882813,-16.11328,41.99219,-44.18945,88.34656,3.22998,-80.78796,15.175,2.641667,-5.1,1
163879,0.01416016,0.9003905999999999,-0.1000977,-34.60693,4.455566,-20.75195,87.96753,0.6427001999999999,-73.53699,22.35833,-2.916667,0.1416667,1
164119,-0.2529297,1.208496,0.2558594,-24.71924,-12.08496,31.61621,87.1106,0.8074950999999999,-74.46533,24.275,5.091667,12.80833,1
164329,-0.2529297,1.208496,0.2558594,-24.71924,-12.08496,31.61621,87.1106,0.8074950999999999,-74.46533,12.275,-0.7416667,3.575,1
164539,-0.4472656,1.288086,-0.3867188,44.86084,-2.807617,2.441406,86.09985,-1.30188,-83.88062,13.575,5.366667,-3.908333,1
164809,-0.07910156,0.9140625,0.2387695,-44.43359,34.42383,47.66846,86.80847,3.581543,-76.67358,11.4,0.6833332999999999,7.458333,1
165019,0.09521484000000001,1.435059,-0.1210938,18.43262,27.9541,-5.065918,85.38025,4.619751,-70.09277,18.91667,5.208333,-0.1666667,1
165359,-0.109375,0.5761719,0.07861328000000001,-0.7324219,-41.87012,-45.8374,85.72632,0.19775389999999998,-80.26062,14.30833,-1.275,1.85,1
165629,-0.45068359999999996,1.224609,-0.2509766,7.8125,24.10889,-1.7700200000000001,85.51758,-1.120605,-81.00769,-42.41667,-36.03333,-22.89167,1
165909,-0.4008789,1.645508,0.0390625,-46.875,61.34033,-8.666992,89.32983,4.932861,-74.39941,9.925,1.2,0.48333329999999997,1
167120,0.07226563,0.6606445,0.08496094,-8.483887,37.71973,22.70508,86.83594,2.076416,-75.66284,16.46667,-1.8666669999999999,0.5666667,1
167379,0.43554689999999996,1.618164,-0.3671875,34.36279,23.55957,1.8310549999999999,85.72083,2.6202389999999998,-68.95569,13.83333,6.816667,-2.583333,1
167639,-0.1000977,0.5859375,0.06640625,1.098633,-15.56396,-24.16992,86.45142,-0.0604248,-74.60266,-42.75,-35.53333,-26.46667,1
167919,-0.007324219000000001,0.8837891,-0.0034179690000000003,-58.77686,-20.87402,30.94482,84.00146,-1.439209,-78.40393,21.56667,0.35833329999999997,7.025,1
168199,0.230957,0.796875,0.1254883,-34.05762,38.08594,39.85596,85.94604,2.362061,-71.71326,13.64167,-0.6583333,2.616667,1
168469,0.1396484,1.024414,-0.03320313,25.02441,-14.83154,4.211426,82.81494,2.521362,-65.20935,-40.20833,-35.40833,-33.25834,1
168829,-0.2822266,0.6884766,0.14306639999999998,-3.173828,-31.61621,-37.47559,86.32507,-0.6536865,-69.45557,13.44167,-0.8333332999999999,2.275,1
169119,-0.2924805,1.239746,-0.2666016,41.68701,21.11816,4.150391,84.5343,-1.763306,-73.57544,15.05833,3.608333,-0.9666665999999999,1
169339,-0.02148438,1.15625,0.1445313,-46.63086,43.94531,26.06201,86.80847,2.565308,-68.42285,12.01667,0.35833329999999997,7.658333,1
169569,-0.3071289,0.9702147999999999,0.06445313,-21.1792,-14.52637,-26.97754,83.66089,3.405762,-60.63904,-37.275,-36.0,-37.275,1
169799,-0.07470703000000001,0.6337891,0.3994141,20.01953,-22.15576,2.563477,84.64966,1.763306,-64.19861,17.075,4.683333,-1.983333,1
170039,-0.03759766,0.8989258,-0.1411133,-18.24951,-6.286621,24.90234,85.04517,1.043701,-72.83386,-42.03333,-35.74166,-30.775,1
170289,0.10058589999999999,1.091797,0.46728519999999996,36.74316,0.06103516,-34.30176,87.11609,-1.126099,-72.77344,25.25,0.525,-0.5416667,1
170569,0.2460938,0.6010742,0.1708984,18.79883,55.7251,24.23096,85.94055,1.038208,-65.50598,15.45,-3.016667,0.8250000000000001,1
170789,0.4023438,1.499512,-0.3374023,9.277344,15.625,0.3051758,87.05566,2.191772,-62.01782,-38.18333,-37.16667,-35.55833,1
171049,0.1137695,1.133789,0.14257809999999999,-45.10498,-46.26465,-10.74219,87.98401,-2.889404,-65.33569,11.03333,0.3416667,4.991667,1
171259,0.04248047,0.871582,-0.13525389999999998,-12.39014,-2.441406,17.39502,88.54431,0.45593259999999997,-70.65857,19.8,2.133333,-2.425,1
171489,-0.060546880000000004,1.220215,0.2836914,20.99609,42.66357,-28.68652,89.3573,2.999268,-63.44055,12.44167,1.783333,-2.066667,1
171789,-0.12207029999999999,0.9140625,-0.056640630000000004,-54.26025,-7.507324,-34.11865,86.66565,1.208496,-49.59778,-32.08333,-37.81667,-42.15,1
172079,0.1176758,1.039551,0.1445313,-50.78125,-39.00146,-31.37207,90.68115,-3.356323,-55.61279,11.50833,-0.40833329999999995,5.191667,1
172419,0.15869139999999998,1.286621,0.06445313,6.103516,29.60205,5.187988,86.50635,-2.219238,-60.67749,20.19167,3.791667,3.033333,1
172699,0.2070313,0.6665038999999999,0.1318359,-14.95361,60.18066,45.8374,88.45642,0.054931640000000004,-47.95532,14.65,-1.733333,1.941667,1
173039,0.4370117,1.5229489999999999,-0.45898439999999996,16.17432,16.29639,-6.408691,89.12659,1.560059,-41.4679,17.55833,5.933333,-3.408333,1
173309,-0.10058589999999999,0.6875,-0.017089840000000002,62.37793,-41.25977,-35.03418,89.07166,0.1812744,-46.34583,15.63333,-2.95,-3.641667,1
173679,0.02685547,1.536133,0.26220699999999997,41.99219,28.32031,-55.41992,92.2522,3.059692,-42.57202,-27.34167,-42.51667,-39.875,1
173949,-0.1362305,0.8266602,-0.1118164,27.83203,51.87988,0.6713867,91.07666,-1.389771,-31.12427,14.64167,-1.6,-6.2,1
174189,0.3696289,1.508301,-0.1411133,23.55957,-21.54541,-0.3051758,90.19775,2.735596,-30.67383,15.49167,2.916667,-2.8083329999999997,1
174399,-0.08154297,0.5356445,0.06347656,-0.4882813,-25.08545,-41.50391,90.19226,-1.142578,-41.04492,-30.20833,-40.23333,-39.375,1
174639,0.09863281,1.064941,0.01611328,-28.32031,9.765625,43.76221,89.0387,-1.878662,-42.68738,24.83333,-3.516667,5.733333,1
174889,0.05029297,0.7988280999999999,0.09375000000000001,-34.30176,69.21387,48.88916,91.03271,0.37353519999999996,-26.71875,14.06667,-1.725,3.358333,1
175229,0.09082031,1.211426,-0.05566406,32.4707,-16.90674,-8.483887,89.09363,0.7745361,-15.34241,20.275,5.891667,4.591667,1
175509,-0.16259769999999998,0.7744141,0.1411133,-23.92578,-13.12256,-25.26855,90.68115,-2.779541,-18.33069,-20.8,-38.075,-46.0,1
175769,0.04003906,0.765625,-0.1035156,-69.33594,-4.272461,29.78516,90.47241,-1.593018,-21.25305,20.14167,-3.725,3.908333,1
176029,-0.2993164,1.471191,-0.022460940000000002,-64.63623,64.45313,6.652832,92.55981,1.94458,-13.5791,8.791667,1.308333,3.375,1
176329,-0.22998049999999998,0.8662109,0.08691406,-27.771,-12.69531,-29.54102,87.12158,-0.33508299999999996,-1.098633,23.475,-6.25,-1.55,1
176659,-0.08203125,0.9877929999999999,0.18212889999999998,-32.53174,-31.79932,-19.40918,90.84595,-4.141846,-4.630737,12.875,-0.31666669999999997,4.875,1
176919,0.11083979999999999,1.168945,0.1577148,9.887695,16.23535,9.887695,88.19824,-3.504639,-10.26672,-16.08333,-36.725,-48.98333,1
177209,0.1474609,0.6591796999999999,0.20605469999999998,-22.82715,41.80908,25.32959,89.07166,-0.8074950999999999,0.1153564,-8.016666,-37.225,-49.46667,1
177509,0.2045898,1.442871,-0.2792969,26.36719,-6.04248,4.821777,86.68762,1.417236,6.987305,-3.283333,-36.25834,-50.3,1
177819,0.1616211,1.479492,-0.04736328,35.03418,-30.94482,24.16992,91.15356,-3.543091,3.883667,11.48333,0.5916667,3.725,1
178099,0.1201172,0.9995117,0.056640630000000004,-39.24561,-7.324219,26.30615,88.03345,-3.208008,-3.845215,22.71667,-0.8,6.191667,1
178389,0.2714844,0.8325195,0.08300781,-38.26904,42.96875,48.88916,90.74158,1.170044,3.80127,15.15,-1.45,4.308333,1
178639,-0.01611328,1.158203,0.002441406,39.97803,-22.94922,-3.417969,87.95654,1.2854,12.79907,21.475,7.616667,7.5,1
178899,0.12744139999999998,1.5,0.1484375,47.72949,-30.94482,44.00635,92.26868,-4.136353,9.404297,11.64167,1.733333,-1.483333,1
179109,0.04931641,0.8037109,-0.1074219,22.15576,-26.85547,-6.408691,92.11487,-0.3405762,2.927856,14.2,-1.325,-7.258333,1
179339,0.7846679999999999,1.276855,0.1923828,46.81396,37.71973,-85.14404,94.10889,-1.384277,2.334595,22.975,2.191667,-5.875,1
179619,0.1933594,0.6503905999999999,0.09326172,21.91162,72.81494,23.98682,91.31836,-1.917114,11.76636,15.3,-2.283333,-3.183333,1
179859,0.12255859999999999,1.387695,-0.2612305,13.24463,-11.96289,8.789063,89.00024,0.39550779999999996,15.79834,-0.3333333,-37.3,-46.90833,1
180119,-0.04150391,0.7514647999999999,0.01611328,36.13281,-36.43799,-42.96875,90.73059,-1.604004,7.03125,-4.116667,-38.5,-46.70833,1
180429,-0.128418,1.1479489999999999,0.1386719,9.58252,-6.04248,24.35303,89.21448,-3.7683109999999997,3.098145,20.64167,5.058333,5.833333,1
180669,0.2958984,0.5908203,0.09228516,-13.91602,50.10986,41.3208,90.63171,-0.33508299999999996,12.3761,0.8083332999999999,-39.05833,-44.64167,1
180949,0.48144529999999996,1.5185549999999999,-0.3994141,20.62988,-29.60205,9.82666,89.42871,0.3900146,17.09473,12.08333,6.7,-2.866667,1
181269,-0.07617188,0.6557617,0.06005859,7.69043,-39.85596,-29.60205,90.11536,-1.257935,4.119873,-5.2,-38.625,-47.175,1
181549,-0.07324219,1.414063,-0.137207,26.00098,-5.615234,-5.554199,90.7251,-2.741089,3.12561,13.55833,5.908333,-0.6000000000000001,1
181889,0.06787109,0.7255859,-0.02148438,35.33936,35.88867,17.76123,90.5658,-1.9006349999999999,13.11218,15.65,-1.825,-6.108333,1
182199,-0.3989258,1.23291,0.3066406,9.521484,-10.92529,41.56494,91.11511,-0.7470703,15.19958,24.54167,0.875,1.541667,1
182489,0.06494141,0.8564453,-0.06591797,12.45117,-37.29248,8.666992,90.12085,0.1702881,1.713867,14.24167,-0.7583333,-6.983333,1
182839,0.4785156,0.8676758,0.3271484,-12.57324,47.54639,-52.30713,89.81323,-0.6152344,2.905884,18.76667,2.775,-5.233333,1
183029,0.06787109,0.7592772999999999,0.015625,34.729,47.54639,21.05713,88.76953,-1.7028809999999999,11.78284,16.54167,-2.216667,-2.316667,1
184239,-0.12451169999999999,0.9824219,-0.1635742,-20.93506,17.94434,-13.30566,88.16528,-1.950073,17.85278,17.36667,2.775,-1.8666669999999999,1
184439,-0.006835938000000001,1.160156,0.1845703,45.6543,0.9765625,29.35791,87.14355,0.6262207,15.59509,16.94167,6.658333,4.116667,1
184649,-0.07714844,0.8261719,0.1879883,-23.92578,-39.00146,-40.40527,88.35205,-4.125366,10.54138,13.56667,-0.65,5.058333,1
184869,-0.04199219,0.8916016,-0.140625,-33.44727,8.300781,22.46094,89.17603,-0.7196045,6.2677,20.6,-1.416667,1.733333,1
185089,-0.1835938,1.677734,-0.03369141,-9.94873,34.66797,-31.12793,90.35706,2.103882,10.14038,10.4,2.95,-1.066667,1
185369,-0.07373047,1.023926,-0.007324219000000001,-40.64941,-8.666992,-31.00586,85.58899,0.7690429999999999,16.32019,4.008333,-35.55,-48.125,1
185649,-0.2817383,0.9594727,0.3676758,-9.277344,-22.03369,64.02588,90.26367,-1.686401,16.22681,17.43333,2.85,-3.633333,1
185879,0.02001953,0.8676758,-0.140625,-27.83203,-32.22656,18.79883,90.68665,0.6701659999999999,1.779785,-5.641667,-37.725,-47.7,1
186179,-0.07324219,1.228516,0.2993164,21.1792,17.94434,-27.83203,90.79651,1.669922,5.29541,-1.6,-37.91667,-46.75,1
186449,0.030273440000000002,0.8183594,-0.041015630000000004,31.31104,21.91162,0.6103516,90.0,-1.950073,10.27771,16.64167,-0.7833333,-6.4,1
186699,-0.15478519999999998,0.7021484,0.3378906,-25.6958,-12.08496,27.28271,90.401,-2.026978,12.20032,-1.208333,-39.9,-44.725,1
186999,0.04980469,0.8994141,-0.1572266,-23.92578,-25.5127,8.911133,90.69763,-0.9063721,4.119873,19.61667,2.816667,0.8083332999999999,1
187309,-0.1489258,1.461426,0.2167969,11.47461,33.44727,-22.27783,91.88965,1.697388,8.76709,10.78333,1.916667,-2.1,1
187619,-0.10058589999999999,0.9438477,-0.04003906,-46.69189,-15.74707,-31.00586,88.24768,-1.07666,17.94617,24.43333,-4.641667,3.741667,1
187939,0.19384769999999998,1.4863279999999999,-0.04248047,3.601074,-38.0249,4.577637,90.59326,-3.532104,10.78308,10.05,1.35,1.275,1
188269,0.1137695,0.8535155999999999,-0.007324219000000001,-48.40088,4.02832,38.33008,88.16528,-2.362061,2.373047,24.675,-5.475,7.025,1
188499,-0.0009765625,0.9326171999999999,0.1953125,-44.73877,50.47607,36.43799,90.78003,0.45593259999999997,10.56885,4.125,-39.725,-44.68333,1
188729,-0.168457,0.9067383,-0.1723633,-34.11865,18.85986,-14.5874,89.75281,-0.8349609,19.7699,16.8,1.716667,0.24166669999999998,1
188969,-0.005371094000000001,1.128418,-0.02978516,12.87842,14.28223,7.202148,88.64868,1.653442,17.01233,11.125,6.65,1.391667,1
189179,-0.02148438,0.7495117,-0.01806641,26.79443,-49.01123,-17.7002,90.04395,0.5053711,4.421997,0.7166667,-39.475,-46.51667,1
189439,-0.1396484,1.29834,-0.06201172,16.47949,27.46582,2.502441,88.56628,-1.889648,1.752319,18.1,5.766667,1.55,1
189699,-0.1577148,1.845215,-0.1420898,-9.155273,26.42822,-31.49414,92.95532,2.801514,5.218506,8.658334,1.2,-0.008333334000000001,1
189919,-0.1132813,0.9536133,0.0234375,-33.81348,-29.35791,-40.46631,88.89587,1.043701,11.07971,24.03333,-5.708333,1.85,1
190199,0.2192383,1.428711,0.05517578,-29.60205,-45.8374,-0.6713867,92.75757,-4.8614500000000005,3.696899,-2.7,-38.91667,-46.96667,1
190479,0.10839839999999999,0.7890625,-0.08837891,-28.32031,-23.4375,4.211426,90.40649,-0.8349609,-3.477173,16.1,1.791667,-2.891667,1
190759,0.1914063,0.6967772999999999,0.3691406,-2.929688,60.66895,-23.49854,89.09912,-0.9448242,2.730103,14.7,2.858333,-3.316667,1
191019,-0.12207029999999999,0.9506836,-0.028808590000000002,-23.01025,-18.00537,-32.40967,89.24194,-1.213989,14.35913,6.25,-36.525,-46.83333,1
191289,-0.4335938,1.257813,0.23291019999999998,19.22607,-5.859375,52.55127,90.21423,-0.01098633,10.65125,24.63333,3.391667,4.908333,1
191579,0.09228516,0.7929687999999999,-0.05517578,18.67676,-35.7666,-4.455566,89.96704,0.4888916,0.2416992,14.40833,-0.8083332999999999,-6.783333,1
191859,0.48144529999999996,1.057617,0.328125,7.080078,27.89307,-45.53223,90.74158,-1.235962,2.307129,25.24167,-0.5833332999999999,-4.641667,1
192189,-0.199707,0.9243163999999999,-0.1953125,-4.455566,18.73779,-15.13672,89.71985,-1.219482,13.78784,19.11667,0.6416666999999999,-4.391667,1
192499,-0.1474609,0.5957030999999999,0.3583984,6.713867,-39.24561,17.15088,91.12061,-1.972046,8.948364,16.4,3.091667,-5.191667,1
192729,0.09326172,0.7988280999999999,-0.17431639999999998,-20.32471,-6.225586,10.68115,91.51611,0.3076172,-2.400513,-2.083333,-38.63334,-50.06667,1
192969,0.017089840000000002,1.238281,0.14257809999999999,10.98633,21.72852,-20.08057,91.45569,-1.741333,2.021484,22.25833,5.475,2.825,1
193209,0.2036133,0.7617187999999999,0.09570313,-33.02002,25.26855,52.91748,89.09363,0.43396,9.239502,14.48333,-0.8166667,4.266667,1
193429,0.453125,1.328125,-0.3388672,23.13232,-3.234863,5.737305,87.28638,1.120605,11.57959,16.21667,8.066667,-0.3833333,1
193729,0.25439449999999997,1.51709,-0.05078125,10.19287,-35.46143,19.89746,90.36804,-2.999268,10.79956,12.275,1.683333,0.225,1
193939,0.25439449999999997,1.51709,-0.05078125,10.19287,-35.46143,19.89746,90.36804,-2.999268,10.79956,16.375,0.01666667,-6.25,1
194159,0.18261719999999998,0.7197266,0.35595699999999997,-24.90234,57.00684,-35.64453,88.76953,1.796265,4.526367,15.53333,3.291667,-1.7,1
194429,0.04345703,1.029785,-0.05712891,-24.6582,2.990723,-22.33887,88.78601,0.054931640000000004,14.66675,7.125,-36.8,-46.175,1
194709,-0.2763672,1.131348,0.375,41.44287,-24.96338,35.7666,89.87366,0.0,10.78857,26.025,3.083333,6.958333,1
194979,0.07128906,0.8310546999999999,-0.07226563,24.10889,-33.81348,2.746582,91.15906,0.2911377,-1.71936,13.975,-1.2,-6.866667,1
195249,0.2905273,0.7568359,0.3369141,-15.13672,51.45264,-52.79541,90.49438,-0.5053711,1.5271000000000001,0.5583332999999999,-38.28333,-46.95,1
195519,0.04052734,0.7197266,-0.004882813000000001,55.66406,52.00195,26.55029,89.18701,-1.1920169999999999,10.33264,17.99167,-2.925,-2.616667,1
195759,-0.2529297,1.170898,0.08837891,35.70557,15.07568,22.33887,89.13757,1.131592,11.74988,4.325,-38.3,-46.35,1
196069,-0.030273440000000002,0.7641602,-0.07421875,30.82275,-36.01074,-29.35791,89.91211,0.6701659999999999,2.208252,13.81667,-2.691667,-6.391667,1
196409,0.621582,1.167969,0.22216799999999998,12.02393,7.019043,-33.26416,92.21924,-1.054688,2.69165,29.05833,-1.425,-0.5333333,1
196689,-0.09716797,0.918457,-0.1416016,13.12256,38.08594,-18.61572,90.8844,-1.296387,14.73816,20.49167,0.5333333,-5.575,1
197049,0.1992188,1.4375,0.07666016,-7.263184,-52.6123,2.502441,88.3905,-2.504883,6.17981,1.816667,-40.3,-49.7,1
197309,0.02294922,0.996582,-0.10058589999999999,0.5493163999999999,-13.12256,7.873535,89.05518,0.38452149999999996,0.6317138999999999,16.58333,0.725,-3.466667,1
197569,-0.0390625,1.396973,-0.1474609,41.01563,-14.5874,3.112793,89.21997,-2.136841,2.977295,16.09167,8.058333,2.891667,1
197769,0.007324219000000001,0.8291016,-0.05517578,32.95898,32.89795,10.74219,89.88464,-0.802002,11.29944,7.2,-44.1,-44.31667,1
198009,-0.1040039,1.157715,-0.04052734,25.81787,-11.1084,-5.065918,87.1875,2.026978,12.87598,19.06667,4.816667,3.108333,1
198249,-0.144043,0.7285155999999999,0.1137695,-34.66797,-29.11377,-41.93115,88.89038,-2.735596,7.025757,2.95,-43.8,-46.04167,1
198499,0.03076172,0.7875977,-0.159668,-45.28809,8.239746,25.26855,89.09912,-0.40649409999999997,3.587036,21.33333,-2.275,4.791667,1
198789,-0.21289059999999999,1.684082,-0.07568359,-53.83301,29.78516,-9.033203,91.33484,1.741333,9.640503,5.916667,-41.425,-45.50834,1
199079,-0.1279297,1.138672,0.04541016,-40.2832,-38.0249,-26.36719,87.41272,0.6427001999999999,13.13416,23.98333,-7.35,2.683333,1
199389,0.1962891,1.260254,0.09033203000000001,-24.71924,-47.36328,-18.06641,89.84619,-3.416748,8.920898,2.141667,-41.45833,-45.51667,1
199699,0.04052734,1.102051,0.03320313,-15.19775,-3.4790039999999998,6.225586,87.34131000000001,-2.471924,3.894653,23.45833,6.466667,4.491667,1
200979,0.11425779999999999,1.469238,0.1557617,24.96338,9.277344,-22.27783,90.67017,-1.571045,3.3728029999999998,25.775,2.258333,2.2,1
201219,-0.08007813,0.9985352,-0.07226563,9.94873,31.79932,-4.882813,90.47241,-1.3623049999999999,11.96411,13.40833,0.05833333,-6.925,1
201489,-0.3442383,0.7807617,0.24902339999999998,-24.29199,9.765625,24.35303,88.41248,-0.2801514,15.21606,5.883333,-37.48333,-45.55,1
201759,-0.15087889999999998,0.6625977,0.06982422,-2.258301,-18.9209,-30.33447,88.51135,-2.114868,11.5741,16.26667,-1.841667,2.841667,1
202049,-0.4453125,1.331543,-0.3007813,31.31104,-16.05225,5.981445,88.40698,-1.8457029999999999,7.712402,11.85,5.308333,-2.533333,1
202309,0.105957,0.75,-0.01757813,51.3916,25.6958,17.33398,88.52234,-0.04394531,11.71692,16.15,-2.141667,-3.925,1
202689,-0.06884766,0.4067383,0.30273439999999996,-7.202148,-26.79443,-16.96777,86.59973,-0.5822754,11.83228,4.083333,-37.06667,-47.53333,1
202959,-0.0859375,0.7114258,0.03515625,28.25928,-23.80371,-24.90234,87.31934,0.5712891,3.55957,14.45,-2.283333,-2.758333,1
203199,0.1181641,1.309082,0.11425779999999999,6.530762,28.25928,6.408691,85.69336,-2.103882,2.724609,22.68333,4.825,1.508333,1
203409,0.1098633,0.6518554999999999,0.121582,-21.24023,29.60205,30.70068,87.31934,0.6317138999999999,10.21179,4.691667,-37.525,-47.65833,1
203639,-0.1030273,0.8476562999999999,-0.02734375,-36.68213,-15.07568,-32.22656,87.87415,0.07141113,15.33142,26.3,-5.983333,1.666667,1
203899,0.01611328,1.463867,-0.00390625,6.713867,-50.23193,22.64404,89.0332,-2.312622,11.83228,11.49167,1.325,0.325,1
204209,0.08154297,0.9672852,0.02587891,-29.54102,0.3051758,25.45166,86.52283,-1.598511,6.196289,1.175,-38.35833,-49.95,1
204499,0.2460938,0.7524413999999999,0.38134769999999996,-5.187988,30.0293,-29.66309,88.70911,-0.2636719,6.459961,16.725,3.025,-5.491667,1
204789,0.03125,0.8769530999999999,-0.0859375,-9.58252,-7.385254,-14.5874,86.79749,-1.587524,11.54114,20.5,-0.35000000000000003,-0.2166667,1
205029,0.1416016,1.226563,0.40283199999999997,34.85107,-5.67627,28.13721,89.26941,-3.301392,10.2063,2.716667,-41.38334,-47.63334,1
205319,-0.12402339999999999,0.8139647999999999,-0.12255859999999999,-36.43799,9.765625,17.33398,87.54456,-1.40625,11.29395,20.375,-4.075,2.616667,1
205619,-0.425293,1.391602,0.02832031,-25.45166,52.6123,-5.432129,89.64294,2.329102,20.1709,11.59167,-39.91667,-44.33333,1
205919,-0.07470703000000001,1.088379,0.01074219,-31.31104,-11.84082,-27.771,84.89136,0.7141113,26.9165,14.68333,-38.74166,-43.275,1
206209,0.01904297,0.8149413999999999,0.3286133,-13.42773,-32.71484,41.87012,87.69287,-2.488403,24.9939,17.14167,4.175,-4.516667,1
206459,0.001464844,0.7978516,-0.09082031,-22.94922,6.896973,16.72363,88.20923,-0.7580566,17.08923,21.225,2.041667,0.5666667,1
206759,0.02539063,1.229004,0.23339839999999998,36.74316,50.72021,-34.85107,88.3136,0.005493164,25.41138,13.56667,1.533333,-2.625,1
207099,-0.09814453000000001,0.8271484,-0.06005859,-40.16113,-3.173828,-16.41846,85.41321,-1.164551,38.79272,24.45,-4.45,2.916667,1
207289,-0.3740234,1.003418,0.4399414,14.64844,-11.90186,42.84668,86.79199,-0.7580566,38.4137,25.68333,0.04166667,2.391667,1
207519,-0.01025391,0.8920897999999999,-0.08154297,24.35303,-17.27295,-2.807617,88.84094,-0.0769043,31.5802,15.3,-42.45,-38.51667,1
207749,-0.34863279999999996,1.19873,-0.2988281,51.08643,10.86426,-2.990723,86.92383,-3.076172,31.31653,12.94167,5.7,-1.533333,1
208029,-0.1538086,1.015625,0.20996089999999998,-48.0957,35.15625,29.72412,88.9563,2.642212,37.30408,12.01667,-0.3416667,5.725,1
208259,-0.14257809999999999,1.067871,0.05712891,8.239746,-2.868652,-8.728026999999999,85.59998,1.071167,45.0,20.21667,7.133333,5.683333,1
208509,0.1264648,1.14502,0.32617189999999996,31.43311,-11.77979,25.6958,89.04419,-3.065186,44.94507,12.95833,3.225,-2.391667,1
208749,0.015625,0.8422852,-0.05224609,21.3623,-27.83203,-18.73779,89.13757,-0.08239746,39.33655,13.49167,-2.541667,-5.441667,1
208989,0.4487305,1.238281,0.2758789,25.08545,35.46143,-53.4668,89.87366,-1.4556879999999999,39.23218,26.31667,0.55,-2.708333,1
209259,-0.1459961,0.871582,-0.06201172,9.460449,32.95898,-16.60156,89.5166,-2.197266,53.33862,21.43333,-42.65,-26.88333,1
209569,-0.5092772999999999,0.9130859,0.38867189999999996,0.6713867,-22.15576,32.71484,87.68188,-0.1208496,50.09216,24.34167,-0.8166667,0.8583333999999999,1
209859,0.01953125,0.9692383,-0.06152344,13.06152,-20.81299,4.455566,88.81897,0.6427001999999999,38.25439,17.98333,-41.75,-35.88334,1
210169,0.26269529999999996,0.902832,0.3916016,0.9155272999999999,38.51318,-51.14746,89.50012,0.1318359,39.56726,16.88333,3.6,-4.416667,1
210489,-0.1000977,0.8959961,-0.1298828,-41.80908,14.64844,-20.08057,87.61597,-0.8294678,50.13611,17.025,1.258333,1.7,1
210779,0.08349609,0.9902344,0.3071289,40.89355,-22.76611,40.40527,87.72583,-2.422485,47.88391,14.58333,4.008333,-3.766667,1
211119,0.02148438,0.7773437999999999,-0.11083979999999999,-38.20801,10.62012,14.16016,86.24817,-0.1812744,37.58972,20.20833,0.325,4.266667,1
211389,-0.3037109,1.527832,0.06494141,9.70459,35.82764,-26.00098,89.1156,3.202515,43.30811,11.43333,2.8083329999999997,-1.516667,1
211759,0.3369141,1.425781,-0.2392578,41.99219,-22.76611,4.333496,84.67712,2.345581,48.72986,14.4,4.725,-4.383333,1
212039,0.02587891,1.591797,0.041015630000000004,-11.16943,-55.17578,15.56396,86.89636,-3.191528,42.00623,9.783334,1.475,1.8,1
212269,0.105957,0.8964844,-0.109375,13.5498,-13.3667,13.06152,86.92932,0.5712891,34.60693,15.01667,-0.3833333,-5.391667,1
212469,0.01171875,0.9062500000000001,0.4931641,10.31494,43.27393,-35.40039,88.76953,1.235962,41.27563,16.425,-39.36666,-31.46667,1
212719,-0.030273440000000002,0.8510742,-0.03613281,10.43701,20.26367,3.845215,86.98975,-1.098633,47.32361,13.51667,0.1833333,-9.016666,1
212969,-0.31054689999999996,1.080566,0.24511719999999998,-2.441406,-22.64404,47.18018,84.42993,0.4724121,44.34082,16.45,-39.81667,-31.45,1
213229,-0.1870117,0.5605469,0.1523438,-12.81738,-15.80811,-35.33936,85.20447,-3.251953,40.73181,15.56667,-1.675,4.316667,1
213489,-0.3076172,1.26416,-0.152832,43.09082,8.056641,-5.859375,86.74805,-3.532104,39.375,16.51667,-41.54167,-29.84167,1
213779,0.1079102,0.6987304999999999,0.01367188,27.58789,45.59326,20.20264,86.67114,-0.1483154,49.19678,14.975,-1.9583329999999999,-3.733333,1
214089,-0.05419922,1.176758,0.11279299999999999,29.35791,-5.371094,28.93066,86.24817,2.675171,52.69592,23.31667,-38.8,-25.59167,1
214399,-0.03613281,0.796875,-0.006835938000000001,35.82764,-46.14258,-20.87402,88.06641,0.7580566,39.17725,15.93333,-2.916667,-5.441667,1
214719,0.1962891,1.084473,0.24853519999999998,16.54053,5.432129,-23.98682,89.2749,-2.323608,35.40344,25.69167,2.15,3.516667,1
214989,-0.11083979999999999,0.8325195,-0.04443359,16.41846,36.9873,-8.239746,89.32434,-1.543579,46.09863,20.90833,-39.19167,-29.13333,1
215269,0.3427734,1.360352,-0.3154297,33.44727,-11.71875,11.71875,86.27014,1.939087,45.67017,17.725,5.683333,-0.6416666999999999,1
215499,-0.1376953,0.6591796999999999,0.06347656,13.79395,-31.98242,-33.20313,88.04993,-1.120605,37.47437,17.90833,-38.80833,-33.53333,1
215859,-0.15087889999999998,1.35791,-0.07128906,51.26953,-6.408691,-11.53564,89.77478,-2.785034,36.12305,15.36667,6.383333,0.2083333,1
216149,0.01757813,0.7753905999999999,-0.07275391,25.75684,34.24072,11.71875,88.78052,-1.697388,48.75183,14.75833,-1.616667,-6.925,1
216469,-0.5048828,1.148438,0.22949219999999998,16.90674,-11.2915,47.05811,88.85742,0.7305908,48.52661,30.50833,2.05,5.458333,1
216699,0.05859375,0.8066405999999999,-0.08984375,10.62012,-49.37744,8.544922,89.00024,1.142578,33.585210000000004,20.15,-37.75,-36.1,1
216939,-0.34863279999999996,1.284668,-0.2436523,23.98682,22.27783,14.46533,86.24268000000001,-2.993774,34.3158,18.275,8.008333,3.158333,1
218179,-0.03857422,1.257813,0.09082031,31.25,16.29639,-17.33398,89.55505,-3.065186,33.17871,21.775,5.3,3.841667,1
218369,0.19726559999999999,0.7685546999999999,0.09277344,-26.61133,54.62646,41.19873,87.37976,0.0604248,43.20923,13.95833,-0.325,3.758333,1
218599,-0.1435547,0.9360352,-0.041015630000000004,-47.79053,-0.4882813,-31.92139,86.90735,0.1043701,51.36658,23.53333,-3.925,5.325,1
218819,0.078125,1.12793,0.1098633,-62.25586,-28.9917,-11.1084,90.16479,-4.9823,43.81348,12.11667,1.416667,3.841667,1
219119,0.01806641,1.033203,0.05761719,-26.24512,4.882813,18.98193,86.08887,-2.746582,39.210210000000004,19.225,-41.90833,-31.46667,1
219409,0.184082,0.7192383,0.1464844,-20.56885,32.22656,38.14697,88.25317,1.164551,46.17554,14.00833,-0.35000000000000003,3.716667,1
219719,0.08300781,1.01709,0.03662109,11.77979,-20.50781,-7.568359,82.70508,3.614502,51.29517,27.79167,-37.95833,-26.96667,1
220019,-0.203125,0.8178711,0.21289059999999999,-12.51221,-25.63477,-28.13721,85.99548,-1.6149900000000001,45.20874,24.48333,-42.16667,-29.70833,1
220289,-0.09423828000000001,0.8876953,-0.1015625,-44.98291,4.394531,23.01025,86.57227,0.2801514,42.01721,18.05833,-2.766667,5.2,1
220539,-0.269043,1.509766,0.03857422,-33.93555,24.53613,-1.403809,89.07715,3.80127,46.34033,28.59167,-41.15833,-26.925,1
220829,-0.1674805,1.029785,-0.06689453000000001,-42.5415,-18.00537,-39.73389,85.177,2.296143,51.32263,22.45,-6.416667,1.65,1
221149,-0.028808590000000002,1.149902,0.1958008,-39.12354,-48.76709,-6.591797,87.78625,-2.774048,45.35156,12.35,1.108333,4.866667,1
221459,-0.03759766,1.071289,0.06298828000000001,-8.117676,6.408691,31.92139,85.64392,-2.554321,38.14453,21.56667,-0.1,3.45,1
221829,-0.1103516,0.8159179999999999,-0.06787109,15.25879,56.9458,6.591797,89.81873,-1.571045,50.88318,28.10833,-44.75834,-25.16667,1
222089,0.1640625,1.099121,-0.1298828,21.54541,-14.03809,-7.629395,85.69885,2.477417,52.78381,21.36667,3.35,-2.016667,1
222339,-0.006347656,0.5976562999999999,0.06787109,19.04297,-32.77588,-40.03906,88.6377,-1.422729,42.70386,24.36667,-44.08333,-33.575,1
222579,-0.02001953,0.8662109,-0.03808594,-39.73389,-0.24414059999999999,36.86523,88.28613,-1.329346,40.3418,23.275,-4.9,3.05,1
222819,0.05615234,0.7729492,0.4072266,-19.16504,39.18457,-45.89844,91.43921,2.362061,43.121340000000004,16.675,3.241667,-6.683333,1
223029,0.01464844,0.9018554999999999,-0.1303711,-36.25488,8.850098,-17.57813,88.30261,0.13732909999999998,50.19653,24.95,-42.48333,-30.08333,1
223279,0.0390625,1.09375,0.1567383,30.70068,-16.29639,26.36719,87.78625,1.549072,47.14233,19.75,5.766667,3.491667,1
223559,0.02392578,0.6826171999999999,-0.02832031,30.33447,-35.52246,-20.62988,90.36804,1.263428,36.61194,19.53333,-43.65,-35.20833,1
223819,-0.1196289,1.214844,-0.1000977,25.26855,21.54541,-1.8310549999999999,87.92908,-2.026978,34.68933,16.80833,7.616667,2.891667,1
224039,0.2768555,0.5668945,0.1845703,-1.464844,53.28369,23.07129,88.61023,-0.8459473,43.17627,20.475,-44.31667,-30.05833,1
224339,-0.2089844,1.162109,-0.04150391,-36.86523,-24.29199,-24.53613,87.19849,1.598511,49.02649,20.24167,-1.5833329999999999,1.8333329999999999,1
224579,0.01318359,0.8793945,0.22167969999999998,-20.62988,-50.53711,-34.66797,87.62695,-3.2958979999999998,41.02295,13.45833,0.2916667,3.433333,1
224869,0.01171875,1.244141,0.06933594,23.92578,34.79004,3.234863,85.73181,-2.25769,36.59546,21.83333,4.783333,1.441667,1
225189,0.1889648,0.7924804999999999,0.1762695,-20.20264,28.07617,21.54541,87.37976,0.7965088,44.00574,15.70833,1.1,4.425,1
225479,0.060546880000000004,1.100098,-0.09570313,18.31055,-16.23535,-6.896973,82.54028,2.054443,46.18652,17.675,5.916667,2.908333,1
225819,-0.16699219999999998,0.7700195,0.1259766,-13.00049,-35.46143,-28.44238,85.177,-2.433472,36.95801,14.41667,-1.075,3.525,1
226079,-0.2832031,1.243652,-0.203125,15.625,13.79395,-0.3051758,84.03442,-3.14209,32.0636,17.3,6.883333,3.475,1
226449,-0.1538086,0.9062500000000001,-0.1118164,-5.67627,36.37695,-11.2915,87.76428,-0.8843994,44.06616,21.125,-44.68333,-29.81667,1
226679,0.29443359999999996,1.2998049999999999,-0.2431641,-3.2958979999999998,-6.896973,3.356934,86.08337,1.829224,42.32483,10.69167,5.391667,-0.6583333,1
226969,0.06640625,1.03418,0.2304688,-34.17969,-45.10498,-0.1831055,87.81921,-3.795776,36.55701,11.78333,0.6083333,3.716667,1
227179,0.06640625,1.03418,0.2304688,-34.17969,-45.10498,-0.1831055,87.81921,-3.795776,36.55701,20.31667,2.233333,-0.5833332999999999,1
227379,0.078125,1.036133,0.44384769999999996,21.66748,36.92627,-42.48047,87.995,1.565552,36.52954,21.56667,-43.425,-32.83333,1
227619,-0.02050781,0.7895508,-0.02587891,31.49414,27.52686,12.20703,87.41272,-0.7086182,41.94031,14.83333,-0.6916667,-7.125,1
227889,-0.4863281,1.060059,0.40478519999999996,7.69043,-22.58301,41.80908,86.58325,0.0,40.05066,24.39167,1.641667,3.391667,1
228189,0.1293945,0.9975586,-0.03564453,24.6582,-28.62549,5.67627,87.65991,-0.5712891,29.18518,16.93333,-44.69167,-37.325,1
228479,0.2749023,0.7099609,0.3056641,-29.23584,52.73438,-39.61182,86.6272,-0.3295898,33.49731,20.44167,-43.8,-34.11666,1
228749,0.08496094,0.7211913999999999,0.06494141,28.50342,32.34863,24.78027,86.48438,-0.6481933999999999,42.81921,15.65833,-2.183333,-2.066667,1
228999,0.1611328,1.299316,-0.1308594,15.25879,1.037598,7.080078,86.92932,1.257935,43.82446,22.66667,-44.275,-29.24167,1
229309,-0.07324219,0.7128905999999999,0.004882813000000001,20.32471,-33.02002,-22.15576,87.44019,-0.2966309,32.95349,14.475,-2.125,-3.891667,1
229609,0.128418,1.397461,0.1723633,44.25049,2.441406,-26.9165,87.44019,-2.9168700000000003,32.47559,15.35,5.95,3.358333,1
229899,0.02050781,0.8706054999999999,-0.00390625,39.55078,30.94482,14.52637,88.11584,-1.241455,41.84143,22.6,-44.76667,-28.96667,1
230199,-0.21337889999999998,0.8789062999999999,0.3554688,-9.765625,-22.46094,35.7666,87.57202,-0.7690429999999999,42.65991,21.95833,-44.8,-30.85,1
230489,0.060546880000000004,0.9516602,-0.09521484000000001,-11.77979,-14.83154,8.666992,88.02246,0.4174805,32.3053,20.36667,-43.96667,-36.24166,1
230789,0.07080078000000001,0.6264647999999999,0.2749023,-10.00977,48.64502,-24.10889,88.0719,0.401001,35.82642,22.59167,-43.75834,-33.44167,1
231139,-0.0703125,0.8017578,-0.06640625,-48.58398,14.4043,-18.00537,87.2699,-0.1702881,46.1261,20.84167,-1.75,3.166667,1
231399,-0.16650389999999998,1.022949,0.4379883,27.16064,-15.625,28.32031,87.55005,1.680908,45.6427,23.24167,1.925,0.49166669999999996,1
231609,0.1210938,0.9057617,-0.04589844,15.68604,-43.5791,2.990723,89.26941,0.5273438,32.73376,19.45,-44.76667,-35.98333,1
231849,-0.18261719999999998,1.227051,-0.17382809999999999,19.65332,19.47021,5.981445,86.81396,-2.504883,31.62964,15.225,7.116667,3.15,1
232089,0.1962891,0.6235352,0.10839839999999999,3.967285,49.37744,13.00049,88.08289,0.5932617,40.02319,22.15833,-44.53333,-31.525,1
232349,-0.2119141,0.8779296999999999,-0.009277344,-36.37695,-12.63428,-29.72412,85.58899,0.9503174,47.4115,22.84167,-6.3,0.7166667,1
232629,0.01269531,1.149902,0.1557617,-37.35352,-43.21289,-11.90186,89.02771,-3.334351,43.36304,20.26667,-45.53333,-31.91667,1
232919,0.1113281,0.9414062999999999,0.09228516,-11.47461,7.507324,28.25928,85.96802,-1.5271000000000001,35.1178,22.88333,-4.233333,3.6,1
233229,-0.002441406,0.9306641,0.20996089999999998,-35.88867,38.81836,46.93604,87.94556,2.763062,40.73181,22.43333,-43.94167,-31.18333,1
233539,-0.1621094,0.9589844,0.10888669999999999,5.432129,-21.42334,-23.37646,85.49561,2.526855,47.31262,19.29167,5.683333,5.633333,1
233839,-0.08007813,0.8100586,0.1875,-15.625,-31.61621,-24.59717,88.35754,-1.889648,41.41296,13.991670000000001,-0.7166667,3.366667,1
234129,0.04931641,1.141113,0.03173828,11.47461,27.40479,5.432129,85.76477,-3.169556,39.28711,18.0,-46.075,-33.20833,1
235389,-0.20605469999999998,1.2998049999999999,-0.1230469,36.25488,-12.69531,7.995605,87.63794,-2.752075,39.6167,15.56667,7.166667,-0.05833333,1
235669,0.0034179690000000003,0.7758788999999999,0.01416016,32.34863,23.25439,4.882813,89.14307,-1.252441,48.65845,15.08333,-2.291667,-9.816667,1
235949,-0.3706055,1.038574,0.3681641,-9.58252,-28.50342,47.24121,86.75903,0.1647949,46.34033,24.5,2.066667,4.291667,1
236269,0.03271484,0.8046875,0.0004882813,3.234863,0.12207029999999999,0.1831055,87.31934,-0.6317138999999999,39.91333,12.85,-0.05,-7.025,1
236599,0.6274413999999999,1.104004,0.47314449999999997,24.35303,51.2085,-46.75293,86.24268000000001,-3.114624,47.04895,25.56667,-0.325,-3.141667,1
236809,0.1303711,0.6103516,0.171875,26.24512,50.96436,16.72363,85.06165,-1.021729,59.50195,17.26667,-1.4,0.7333333,1
237029,0.1303711,0.6103516,0.171875,26.24512,50.96436,16.72363,85.06165,-1.021729,59.50195,23.23333,-5.558333,1.3,1
237239,-0.16601559999999999,1.030273,0.206543,-37.47559,-23.68164,-10.80322,88.72559,-5.383301,64.03931,19.88333,-47.65833,-18.15833,1
237479,-0.03076172,0.8100586,-0.060546880000000004,-18.98193,2.441406,14.5874,88.62671,-0.401001,60.68298,17.875,0.9500000000000001,-3.158333,1
237729,-0.078125,0.8359375,0.3432617,-11.1084,52.12402,-43.33496,89.30786,1.538086,67.08801,23.93333,-44.83333,-14.31667,1
237969,-0.04150391,0.8276367,-0.03613281,26.9165,28.68652,16.6626,88.65967,-0.736084,74.58069,13.93333,-2.916667,-6.958333,1
238259,-0.03466797,1.4873049999999999,0.3442383,12.08496,-10.13184,25.93994,87.00073,1.049194,73.80066,21.94167,-46.54167,-13.325,1
238549,-0.006347656,0.7763671999999999,0.07226563,20.26367,-3.723145,-17.8833,87.33032,0.0,68.91724,14.59167,-1.391667,-2.766667,1
238869,-0.024902340000000002,1.293945,0.09521484000000001,16.41846,-12.08496,-14.83154,86.59424,-2.642212,70.09827,22.45,-45.99166,-12.34167,1
239179,-0.2607422,0.9433594,-0.11474609999999999,-4.516602,29.35791,10.49805,89.74182,-0.6097412,80.13977,13.38333,-2.758333,-6.741667,1
239459,-0.2641602,0.9702147999999999,0.4077148,39.91699,2.075195,34.24072,87.4292,2.362061,83.03467,21.38333,-45.95,-5.475,1
239759,0.08251953000000001,0.9023437999999999,-0.09130859,23.92578,-45.41016,-12.45117,90.4834,1.571045,73.75671,23.45833,-45.25834,-10.5,1
240029,-0.05029297,1.161621,-0.01074219,14.83154,38.75732,2.929688,86.00647,-1.653442,72.74048,20.05,4.483333,3.333333,1
240289,0.1767578,0.6674804999999999,0.15478519999999998,-4.516602,39.42871,22.2168,87.69836,0.9228516,81.19995,16.46667,-0.6666667,2.425,1
240589,0.2739258,1.353516,-0.1948242,19.16504,-10.68115,0.06103516,86.56677,2.510376,85.18799,17.55833,4.8,-1.691667,1
240889,-0.09179688,0.7504883,0.13525389999999998,6.9580079999999995,-34.97314,-28.74756,87.63245,-1.411743,76.83289,14.741670000000001,-1.091667,2.225,1
241239,-0.28662109999999996,1.253418,-0.24560549999999998,27.58789,8.666992,-1.89209,87.36328,-1.576538,74.03137,15.58333,4.875,0.4166667,1
241479,0.07958984,0.7426758,0.10058589999999999,14.09912,23.80371,3.845215,87.68188,0.7525634999999999,81.60645,21.75,-46.26667,-5.6,1
241719,-0.1196289,0.8759766,0.07177734,-17.8833,9.94873,-22.09473,85.19897,1.516113,84.63318,23.35,0.49166669999999996,3.775,1
241959,-0.03662109,0.9926758,0.22998049999999998,-35.5835,-29.90723,-10.0708,89.78577,-3.66394,80.56274,19.29167,-48.06667,-7.158333,1
242199,-0.05029297,0.8286133,-0.10839839999999999,-21.60645,-3.967285,12.08496,89.15955,0.2966309,77.09106,18.55833,1.758333,-0.09166667,1
242479,0.1518555,1.497559,0.1567383,21.24023,-0.4882813,-24.29199,88.83545,-2.114868,78.54126,14.24167,5.808333,1.433333,1
242699,0.04980469,0.8159179999999999,-0.03320313,36.62109,23.55957,17.63916,89.52759,0.1263428,86.66565,20.50833,-46.11666,-1.066667,1
242959,0.05859375,1.236328,-0.02441406,18.55469,-23.55957,-7.324219,86.74805,2.576294,87.60498,18.625,5.541667,3.683333,1
243199,-0.2573242,0.7661133,0.1518555,-28.01514,-33.87451,-37.41455,88.64868,-1.252441,81.21094,12.91667,-1.716667,3.066667,1
243519,-0.1967773,1.120117,-0.2426758,29.84619,13.85498,3.173828,88.42346,-1.224976,74.10278,20.46667,6.741667,7.241667,1
243789,0.1762695,0.6142578,0.137207,8.605957,45.89844,21.91162,88.59924,1.087646,80.44189,22.4,-46.24166,-5.491667,1
244089,-0.09472656,0.8491211,-0.009765625,-48.88916,-6.04248,-30.33447,86.39099,1.09314,86.16028,23.2,-5.633333,2.433333,1
244339,-0.1455078,1.376953,0.1000977,-18.61572,-35.70557,8.483887,89.37378,-2.966309,82.5238,13.46667,1.241667,4.375,1
244619,0.09326172,0.8129883,-0.02685547,-40.64941,-9.033203,30.27344,86.95129,-0.4998779,73.47656,21.86667,-5.683333,5.058333,1
244949,-0.2011719,1.358398,0.09472656,-35.40039,51.33057,6.835938,90.40649,2.894897,80.12878,12.18333,1.3,4.441667,1
245229,-0.08056641,0.8725586,-0.004882813000000001,-48.82813,-19.59229,-36.43799,86.17126,1.027222,88.98926,23.05833,-4.858333,3.316667,1
245589,-0.09667969,0.7119141,0.07226563,2.685547,-37.17041,-43.76221,88.59924,-1.137085,82.2876,20.90833,-47.05833,-6.75,1
245829,0.1196289,0.8149413999999999,-0.02148438,-32.04346,-6.591797,29.54102,87.28088,-0.8074950999999999,77.27234,22.54167,-5.35,4.941667,1
246109,0.2729492,0.8256836,0.31689449999999997,-3.78418,31.12793,-48.0957,90.89539,1.060181,77.77771,22.375,2.058333,-6.908333,1
246299,-0.03759766,1.046387,-0.12744139999999998,-33.56934,24.6582,-11.1084,89.72534,0.0,85.29785,21.575,-46.31667,-5.408333,1
246549,0.3032227,1.38916,-0.3071289,16.72363,11.90186,-3.234863,87.52808,2.521362,83.83667,11.95,7.225,-0.08333334,1
246789,-0.08886719,0.996582,0.2460938,-22.46094,-35.40039,-21.1792,89.07166,-3.378296,80.90881,13.275,1.35,4.691667,1
247019,0.05029297,0.9570312999999999,0.09082031,-27.28271,-13.30566,23.31543,85.48462,-2.60376,74.06433,25.575,1.533333,5.541667,1
247329,0.2573242,0.8876953,0.1733398,-23.68164,37.59766,22.33887,88.24768,1.658936,80.56824,21.84167,-46.33333,-6.058333,1
247619,0.09521484000000001,1.176758,-0.041015630000000004,29.90723,2.197266,-14.09912,86.50635,3.356323,89.09912,23.1,8.516666,11.8,1
247929,-0.2319336,0.7675780999999999,0.07324219,-11.77979,-71.59424,-31.12793,90.79102,-2.059937,82.56226,21.075,-46.725,-6.3,1
248239,-0.04296875,1.240723,-0.00390625,37.59766,7.873535,1.586914,88.42346,-1.1920169999999999,68.61511,16.425,4.833333,3.516667,1
248569,0.2978516,0.6567383,0.105957,-8.728026999999999,1.037598,24.41406,88.53333,3.911133,65.08301,16.425,0.35000000000000003,3.775,1
248829,0.2519531,1.284668,-0.1601563,4.821777,-9.887695,-9.399414,86.95129,5.130615,64.29199,27.35833,-42.475,-17.94167,1
249099,0.07958984,0.9580078,0.3154297,12.26807,-60.48584,28.80859,88.90686,1.384277,58.96912,14.20833,2.275,-1.425,1
249359,0.11621089999999999,0.9140625,-0.1499023,-27.771,-49.31641,0.0,89.50562,3.449707,35.1178,19.83333,0.7916667,5.841667,1
249669,-0.08691406,1.248535,0.1293945,-1.098633,-66.40625,-28.32031,91.91162,7.058716,21.1377,11.05,2.366667,-4.291667,1
249999,0.11865229999999999,0.9345703,-0.10839839999999999,-7.080078,-63.96484,-8.117676,85.47363,5.762329,0.9777832,21.19167,-1.566667,-0.9083334,1
250299,0.004882813000000001,1.072266,0.3007813,22.3999,-88.68408,13.42773,86.8634,4.141846,-14.21631,15.83333,2.225,0.45,1
250529,0.1987305,0.8198242,-0.1552734,-27.40479,-91.30859,-15.13672,84.50134,6.860962,-49.09241,-18.875,-40.38334,-52.35,1
250779,0.24902339999999998,1.42041,-0.015625,22.3999,-73.66943,-31.18896,88.28064,4.53186,-60.39185,13.76667,5.691667,3.758333,1
251019,0.10107419999999999,0.7412109,0.1767578,-10.68115,-39.42871,26.67236,85.68237,7.03125,-71.80115,16.875,-0.8416665999999999,2.266667,1
251229,0.1606445,1.358887,-0.09912109000000001,15.80811,-5.371094,8.544922,84.80347,4.910889,-81.52954,-33.85833,-43.29167,-40.10833,1
252499,-0.04638672,1.320801,-0.1137695,23.37646,-20.08057,0.793457,82.63367,3.6859129999999998,-96.24023,18.74167,7.65,4.991667,1
252759,-0.16699219999999998,0.7392578,0.19384769999999998,-2.258301,-28.80859,-19.89746,84.40247,-1.2854,-103.5132,-43.40833,-42.44167,-23.83333,1
253039,-0.0546875,0.8227538999999999,-0.04736328,-57.86133,-5.67627,36.9873,84.46289,-1.444702,-106.9244,19.9,-3.433333,4.108333,1
253249,-0.1152344,1.314941,0.08349609,-21.97266,34.60693,3.723145,86.3855,2.581787,-103.8812,11.7,0.55,4.241667,1
253569,-0.17041019999999998,0.9384766,-0.05419922,-27.03857,32.34863,-15.31982,86.15479,-0.01647949,-94.39453,15.71667,0.1333333,-3.458333,1
253799,0.06884766,0.9023437999999999,0.3203125,8.544922,-1.953125,16.60156,85.83069,-0.6811522999999999,-94.6637,15.61667,3.666667,-1.5833329999999999,1
254079,-0.07763672,0.8505859,-0.18603519999999998,-38.33008,-0.7324219,19.28711,86.75354,0.8789062999999999,-99.37134,22.44167,0.225,2.8083329999999997,1
254379,-0.1606445,1.3354489999999999,0.1445313,17.82227,17.51709,-43.15186,87.86316,2.9168700000000003,-95.7843,-39.71667,-44.91667,-28.83333,1
254669,-0.01611328,0.8793945,-0.03515625,-37.59766,-3.173828,-10.31494,85.08362,1.09314,-88.25867,19.08333,-3.566667,4.766667,1
254999,0.28613279999999996,1.380371,0.07275391,-16.72363,-46.26465,-1.037598,89.26941,-5.751343,-95.07568,11.43333,0.6333333,2.1,1
255299,0.1435547,0.8735352,-0.01318359,-43.45703,2.746582,34.729,88.20923,-0.5218505999999999,-109.7809,20.89167,-6.541667,0.9666665999999999,1
255669,0.09570313,0.699707,0.08349609,6.835938,59.08203,15.86914,86.4624,0.06591797,-93.5376,16.13333,-1.558333,-0.8333332999999999,1
255949,-0.17822269999999998,0.8896484,-0.007324219000000001,-41.25977,-19.28711,-22.76611,83.97949,2.164307,-86.97327,23.475,-5.908333,0.0,1
256169,0.06445313,1.193359,0.15820309999999999,-34.05762,-48.88916,-26.18408,87.12158,-1.950073,-93.55957,-43.55,-41.11666,-28.28333,1
256419,-0.01904297,0.8232421999999999,-0.03955078,-12.39014,-30.51758,-5.371094,87.57202,1.884155,-100.6897,17.19167,-0.1,-2.5,1
256659,-0.38818359999999996,1.452148,-0.3310547,39.18457,2.746582,-5.859375,85.69336,-0.5438232,-99.43726,8.983334,5.225,-0.6583333,1
256859,0.1689453,0.6699219,0.03320313,26.36719,21.60645,25.57373,83.19946,1.5271000000000001,-94.35608,-41.76667,-42.85,-29.225,1
257109,-0.03417969,1.104492,0.12744139999999998,-14.09912,-13.79395,-22.2168,81.50208,3.4552,-93.64746,16.40833,1.625,6.5,1
257399,-0.230957,0.8525391,0.1557617,-16.54053,-52.73438,-33.44727,84.35852,-0.8129883,-99.13513,-43.40833,-42.75834,-24.15833,1
257659,-0.02392578,0.9077147999999999,-0.1157227,-49.37744,4.943848,29.23584,84.52332,-0.13732909999999998,-105.0293,18.51667,-2.5,3.733333,1
257889,-0.1000977,1.2885739999999999,0.04443359,-23.86475,47.48535,8.666992,85.7373,3.14209,-96.9104,-41.325,-43.875,-27.00833,1
258189,-0.1132813,0.9565429999999999,-0.08349609,3.78418,29.05273,-13.30566,85.59448,1.2854,-89.20898,16.03333,0.15833329999999998,-5.066667,1
258429,0.01904297,0.8320312999999999,0.3842773,8.056641,-33.3252,42.41943,85.95154,0.14282229999999999,-91.41174,17.53333,2.766667,-5.158333,1
