Timestamp,AccX,AccY,AccZ,GyroX,GyroY,GyroZ,AngX,AngY,AngZ,MagX,MagY,MagZ,Tag
0,0.4370117,0.9111328,-0.08789063,-1.037598,-1.89209,-1.6479489999999999,88.85742,-25.85083,-41.02295,24.56667,-89.05,79.71667,1
409,0.4414063,0.9145508,-0.09912109000000001,0.24414059999999999,-0.7324219,-0.3662109,89.42322,-25.68604,-41.48438,24.86667,-89.0,79.75833,1
689,0.4458008,0.9038086,-0.1025391,-2.563477,-0.24414059999999999,-1.953125,89.35181,-25.52124,-41.51184,15.45,-1.45,-0.4666667,1
939,0.4052734,0.9208984,-0.08544922,-0.3051758,0.06103516,-1.708984,88.83545,-25.03784,-41.57776,15.675,-1.475,0.008333334000000001,1
1139,0.4052734,0.9208984,-0.08544922,-0.3051758,0.06103516,-1.708984,88.83545,-25.03784,-41.57776,15.66667,-1.441667,0.03333333,1
1339,0.41894529999999996,0.9160155999999999,-0.09130859,0.06103516,-2.868652,-1.8310549999999999,89.33533,-24.54346,-42.53357,15.575,-1.45,-0.008333334000000001,1
1549,0.40625000000000006,0.8999022999999999,-0.07177734,3.234863,-1.6479489999999999,0.9155272999999999,89.99451,-24.36768,-43.31909,15.91667,-2.25,0.525,1
1809,0.4208984,0.9199219,-0.1030273,-2.075195,0.1831055,-1.525879,90.33508,-24.3512,-44.12109,27.19167,-88.925,79.55833,1
2109,0.41113279999999996,0.9355469,-0.1113281,-1.098633,-0.12207029999999999,-0.793457,90.18127,-24.03259,-44.04968,15.866670000000001,-2.0,-0.1,1
2359,0.3979492,0.9370117,-0.10839839999999999,1.098633,0.1831055,-2.258301,90.14832,-23.65356,-44.13208,27.5,-88.90833,79.45,1
2669,0.3862305,0.9433594,-0.1118164,3.356934,5.981445,-0.3051758,90.06592,-23.04932,-43.12683,16.36667,-2.058333,-0.5666667,1
2969,0.3662109,0.9116211,-0.03759766,-6.286621,-0.3662109,2.502441,88.8739,-23.09875,-42.15454,15.741670000000001,-1.541667,-0.1,1
3269,0.41894529999999996,0.9208984,-0.08691406,4.150391,-12.08496,-1.7700200000000001,89.82971,-23.51624,-44.07715,15.7,-2.15,0.9666665999999999,1
3569,0.378418,0.9321288999999999,-0.1616211,9.887695,-29.60205,-12.02393,94.44397,-21.242070000000002,-50.18555,16.13333,-3.983333,0.8,1
3879,0.27050779999999996,0.9736328,-0.3056641,1.7700200000000001,-15.38086,-22.15576,98.23975,-15.84229,-57.38708,40.30833,-85.65,79.79166,1
4189,0.15625,0.9912109,-0.234375,-3.90625,6.530762,-6.774902,97.46521,-11.32141,-56.66199,42.56667,-84.75,79.79166,1
4489,0.19433589999999998,0.9770508,-0.2680664,0.6713867,-0.3662109,2.929688,97.5531,-11.37085,-55.60181,16.45,-4.2,0.1083333,1
4819,0.1801758,0.9746094,-0.2519531,0.8544921999999999,1.586914,0.06103516,97.81128,-11.50818,-55.47546,16.58333,-4.158333,0.2583333,1
5019,0.2084961,1.022461,-0.30175779999999996,-1.6479489999999999,1.525879,-0.6103516,98.12988,-11.60156,-55.31067,16.38333,-4.191667,-0.5916667,1
5239,0.1923828,0.9643554999999999,-0.2358398,2.380371,0.5493163999999999,1.403809,97.85522,-11.67297,-55.07446,41.41667,-84.625,80.84167,1
5479,0.1923828,0.965332,-0.246582,-1.6479489999999999,0.0,-0.9155272999999999,97.73438,-11.61804,-54.95911,16.45833,-3.908333,-0.04166667,1
5749,0.19824219999999998,0.9829102,-0.2597656,0.6103516,-0.12207029999999999,-0.4882813,97.7179,-11.53564,-55.00854,16.525,-4.275,-0.2083333,1
5959,0.1845703,0.965332,-0.2387695,0.24414059999999999,-0.1831055,0.793457,97.66296,-11.48071,-54.7998,41.38334,-84.76667,80.56667,1
6209,0.1914063,0.9721679999999999,-0.2436523,0.42724609999999996,-0.42724609999999996,-0.12207029999999999,97.74536,-11.48071,-54.85474,16.63333,-4.15,-0.05833333,1
7499,0.1948242,0.9760742,-0.2324219,-1.586914,1.037598,1.098633,97.3114,-11.26648,-54.53613,16.51667,-3.841667,-0.4,1
7780,0.20605469999999998,0.9741211,-0.22119139999999998,-0.6103516,-0.3662109,1.342773,96.66321,-11.50269,-54.10217,40.70833,-85.50833,80.075,1
8069,0.20166019999999998,0.9941405999999999,-0.2124023,-2.441406,-0.9765625,0.9765625,96.32813,-11.30493,-53.75061,40.68333,-85.4,80.14167,1
8319,0.17480469999999998,0.9877929999999999,-0.2280273,2.075195,2.258301,-0.06103516,96.37207,-11.29944,-53.81104,16.60833,-3.666667,-0.01666667,1
8589,0.1870117,0.9716796999999999,-0.2075195,0.06103516,-0.42724609999999996,0.5493163999999999,96.1908,-11.36536,-53.55835,40.63334,-85.59167,79.93333,1
8859,0.21386719999999998,0.9726562999999999,-0.24462889999999998,-1.525879,0.6103516,3.845215,96.82251,-11.99707,-53.60229,40.05,-85.43333,80.54166,1
9179,0.2114258,0.9790038999999999,-0.2265625,-0.06103516,0.6103516,0.12207029999999999,96.5094,-12.31567,-53.4375,16.59167,-3.775,-0.008333334000000001,1
9409,0.2124023,0.9770508,-0.22509769999999998,0.12207029999999999,0.12207029999999999,0.0,96.52039,-12.26074,-53.33862,39.81667,-85.38333,80.69167,1
9689,0.2109375,0.9648437999999999,-0.2202148,-0.1831055,-1.098633,-0.9765625,96.45996,-12.23877,-53.30566,39.81667,-85.31667,80.66666,1
9989,0.2104492,0.9887695,-0.2314453,-0.5493163999999999,1.403809,-2.13623,96.1908,-12.09045,-53.38257,16.71667,-3.675,-0.2166667,1
10269,0.203125,0.9702147999999999,-0.2270508,1.403809,-0.12207029999999999,0.06103516,96.27869,-11.92017,-53.39905,39.96667,-85.40833,80.21667,1
10549,0.2011719,1.006348,-0.2319336,1.220703,2.197266,0.0,96.27869,-11.95862,-53.25623,17.11667,-5.016667,-0.525,1
10779,0.19775389999999998,0.9555663999999999,-0.1542969,-0.8544921999999999,0.4882813,-2.258301,95.86121,-11.80481,-53.18481,17.325,-5.258333,-0.4,1
10989,0.1845703,0.9853516,-0.2119141,-0.42724609999999996,-0.12207029999999999,0.6713867,95.49866,-11.83777,-52.89368,39.88334,-85.64167,80.25,1
11229,0.1884766,0.9746094,-0.2041016,0.9155272999999999,-0.3051758,0.1831055,95.45471,-11.94214,-52.91016,16.55833,-3.575,0.275,1
11479,0.190918,0.9711913999999999,-0.206543,0.7324219,0.06103516,0.5493163999999999,95.77332,-11.99707,-52.811280000000004,39.83333,-85.475,80.54166,1
11730,0.20996089999999998,0.9750977,-0.21386719999999998,-1.464844,0.6103516,0.7324219,95.7074,-12.17285,-52.75635,16.56667,-3.658333,-0.09166667,1
11999,0.2104492,0.9721679999999999,-0.2070313,-0.3051758,0.06103516,-0.42724609999999996,95.50964,-12.16736,-52.70142,16.61667,-3.65,0.06666667,1
12209,0.21875000000000003,0.9467772999999999,-0.168457,-0.1831055,-0.1831055,-0.3051758,95.61951,-12.09595,-52.73987,17.075,-4.758333,-0.1333333,1
12429,0.2045898,0.9726562999999999,-0.2641602,2.990723,0.3051758,2.563477,95.75134,-12.28821,-52.81677,16.325,-3.216667,0.3083333,1
12699,0.2436523,0.9614258,-0.2319336,0.1831055,-0.6103516,0.3662109,96.1853,-13.00232,-52.70691,39.09167,-85.325,81.19167,1
12979,0.2104492,0.9633788999999999,-0.2089844,-1.037598,0.42724609999999996,-1.220703,95.77332,-12.87598,-52.59705,16.40833,-3.666667,0.08333334,1
13219,0.22216799999999998,0.9658203,-0.2226563,0.06103516,-0.06103516,0.24414059999999999,95.87769,-12.73315,-52.65198,39.15833,-85.45,80.68333,1
13529,0.22998049999999998,0.9711913999999999,-0.22509769999999998,-3.723145,2.685547,3.112793,95.36682,-13.1012,-52.26746,38.69167,-85.91666,80.49167,1
13799,0.25488279999999996,0.9692383,-0.20996089999999998,-3.356934,0.6103516,3.112793,94.55383,-13.69446,-51.74011,16.51667,-3.141667,-0.01666667,1
14049,0.25488279999999996,0.9731445,-0.1967773,-2.197266,1.281738,0.6713867,94.80103,-14.34265,-51.62476,16.44167,-3.083333,-0.17500000000000002,1
14389,0.2402344,0.9599609,-0.184082,-4.760742,0.1831055,-2.807617,93.81226,-14.25476,-51.36658,16.28333,-2.891667,-0.6166667,1
14589,0.22998049999999998,0.9731445,-0.1679688,-1.8310549999999999,0.6103516,-1.098633,92.8125,-13.90869,-51.32813,16.49167,-2.925,0.008333334000000001,1
14809,0.2304688,0.9658203,-0.1635742,0.6103516,-0.7324219,-1.7700200000000001,92.57629,-13.65051,-51.28418,16.66667,-3.05,0.09166667,1
15019,0.2314453,0.9804687999999999,-0.17382809999999999,-0.12207029999999999,-0.6103516,-2.929688,92.51587,-13.15063,-51.52039,16.55833,-2.95,-0.01666667,1
15229,0.23779299999999998,0.9731445,-0.1791992,0.6103516,-0.06103516,0.9765625,92.36206,-13.20007,-51.37207,38.425,-86.81667,79.53333,1
15479,0.2348633,0.9741211,-0.18261719999999998,1.098633,0.0,-0.7324219,92.29614,-13.23853,-51.37207,16.73333,-3.175,0.008333334000000001,1
15719,0.2241211,0.9824219,-0.18212889999999998,-0.42724609999999996,-0.3051758,0.0,91.97205,-13.05176,-51.25122,38.59167,-86.85,79.35,1
15969,0.22998049999999998,0.9785155999999999,-0.17431639999999998,-0.06103516,0.1831055,-0.24414059999999999,91.87866,-13.02429,-51.23474,16.71667,-3.075,0.0,1
16240,0.22509769999999998,0.9760742,-0.1762695,-0.24414059999999999,0.0,-0.42724609999999996,91.74683,-12.9364,-51.26221,38.64167,-86.73333,79.4,1
16539,0.22119139999999998,0.9755859,-0.15917969999999998,-1.586914,0.793457,-0.8544921999999999,91.17004,-12.5354,-51.24023,16.65833,-2.733333,0.17500000000000002,1
16850,0.21875000000000003,0.9887695,-0.1879883,-2.563477,-0.3051758,-0.06103516,91.11511,-12.52441,-51.1084,39.03333,-86.825,79.04166,1
17149,0.1918945,0.9926758,-0.21386719999999998,-0.9155272999999999,0.6713867,0.6103516,91.35132,-12.30469,-51.23474,16.34167,-2.133333,-0.1333333,1
17449,0.22119139999999998,0.9770508,-0.1630859,-0.5493163999999999,-0.1831055,0.4882813,91.1261,-12.43103,-51.13586,39.04167,-86.73333,79.28333,1
17749,0.2275391,0.9790038999999999,-0.171875,0.8544921999999999,-0.9155272999999999,-0.06103516,91.13159,-12.46948,-51.25122,39.11666,-86.725,79.19167,1
18039,0.2109375,0.9819336,-0.1674805,-0.9765625,0.793457,0.0,90.91187,-12.34314,-51.07544,39.05,-86.65833,79.05833,1
18339,0.2124023,0.9667969,-0.1435547,0.0,-0.1831055,-1.159668,90.57678,-12.36511,-50.98206,39.04167,-86.80833,78.775,1
18640,0.2036133,0.9799804999999999,-0.1357422,0.24414059999999999,1.098633,1.6479489999999999,90.47241,-11.9696,-51.06995,39.38334,-86.81667,78.975,1
18979,0.2231445,0.9780272999999999,-0.159668,-0.5493163999999999,-0.12207029999999999,0.0,90.0769,-12.42004,-50.78979,16.49167,-2.291667,0.40833329999999995,1
19249,0.22167969999999998,0.9755859,-0.1557617,4.638672,-0.6713867,0.793457,90.5658,-12.50244,-50.87769,16.95833,-3.233333,0.31666669999999997,1
19459,0.22216799999999998,0.9702147999999999,-0.1572266,-1.6479489999999999,0.6713867,-1.6479489999999999,90.90637,-12.65076,-51.02051,38.8,-86.71667,79.18333,1
19699,0.21777339999999998,0.9770508,-0.1772461,-0.12207029999999999,0.24414059999999999,-1.037598,90.8075,-12.4585,-50.98206,16.65,-2.816667,-0.1333333,1
19939,0.2202148,0.9750977,-0.1616211,0.06103516,-0.5493163999999999,0.3051758,90.49438,-12.42554,-50.85022,39.05833,-86.73333,79.11667,1
20189,0.21777339999999998,0.9799804999999999,-0.1713867,-0.12207029999999999,-0.6713867,0.7324219,90.47791,-12.52991,-50.9436,16.7,-2.825,0.008333334000000001,1
20469,0.215332,0.9780272999999999,-0.1708984,0.3051758,0.3051758,0.12207029999999999,90.43945,-12.65625,-50.93262,38.9,-86.775,79.475,1
20769,0.22216799999999998,0.9804687999999999,-0.1796875,0.6103516,0.06103516,0.06103516,90.42847,-12.66724,-50.90515,16.75,-3.008333,-0.05833333,1
21080,0.2236328,0.9819336,-0.1650391,-2.319336,0.7324219,-0.6713867,90.04944,-12.48047,-50.73486,39.00834,-86.94167,79.25,1
21379,0.2075195,0.9755859,-0.1455078,0.4882813,-0.6713867,0.3662109,89.57153,-12.26074,-50.59204,16.8,-2.766667,0.04166667,1
21679,0.2163086,0.980957,-0.1567383,0.9765625,0.6103516,-0.24414059999999999,89.82422,-12.30469,-50.91064,39.23333,-87.0,79.08334,1
21979,0.2226563,0.9785155999999999,-0.1728516,0.0,0.3662109,-0.3051758,90.05493,-12.31567,-50.93811,39.14167,-86.90833,79.08334,1
22249,0.21386719999999998,0.9790038999999999,-0.1606445,0.0,0.0,-0.3051758,90.01099,-12.26074,-50.81726,16.775,-2.816667,0.01666667,1
22499,0.21337889999999998,0.9838867,-0.1689453,-0.4882813,0.4882813,0.06103516,90.05493,-12.28821,-50.85571,38.98333,-86.76667,79.025,1
22809,0.2182617,0.9819336,-0.1650391,-0.3662109,0.24414059999999999,0.12207029999999999,89.96155,-12.33765,-50.81726,16.775,-2.766667,-0.075,1
23109,0.21289059999999999,0.9794921999999999,-0.159668,0.9155272999999999,0.12207029999999999,0.0,89.9231,-12.38159,-50.79529,16.55833,-2.758333,0.4333333,1
24559,0.206543,0.9619141,-0.14697269999999998,-2.380371,1.953125,-0.1831055,89.99451,-12.83203,-50.81726,16.64167,-2.758333,0.31666669999999997,1
24749,0.2314453,0.9794921999999999,-0.1689453,2.685547,-2.075195,0.9765625,90.29114,-12.94189,-50.89966,16.75,-3.15,0.2583333,1
24969,0.24560549999999998,0.9790038999999999,-0.2011719,-1.586914,-1.6479489999999999,-2.01416,90.61523,-12.98584,-50.99854,38.74166,-86.65833,79.45834,1
25209,0.22998049999999998,0.9858397999999999,-0.18164059999999999,1.586914,-1.159668,-0.3051758,90.47791,-12.60681,-51.06445,16.69167,-3.091667,0.125,1
25479,0.2270508,0.9765625,-0.1757813,0.0,0.6713867,0.8544921999999999,90.58777,-12.68372,-51.08093,16.73333,-3.025,-0.04166667,1
25689,0.22167969999999998,0.9702147999999999,-0.1796875,0.12207029999999999,-0.42724609999999996,-0.06103516,90.52185,-12.77161,-51.08643,38.85833,-86.59167,79.35833,1
25939,0.2148438,0.9775391,-0.1757813,0.4882813,0.24414059999999999,0.6103516,90.47791,-12.79907,-51.01501,16.61667,-3.108333,0.275,1
26190,0.2241211,0.9814453,-0.1889648,3.417969,0.1831055,4.02832,90.98877,-13.17261,-50.98755,16.78333,-3.45,0.008333334000000001,1
26399,0.2402344,0.9682617,-0.184082,-1.7700200000000001,0.06103516,-1.525879,90.75806,-13.55164,-50.86121,38.19167,-86.61667,79.83334,1
26649,0.2246094,0.9760742,-0.1796875,-0.42724609999999996,-0.42724609999999996,-1.037598,90.49438,-13.22205,-50.91614,16.56667,-2.975,0.03333333,1
26919,0.230957,0.9790038999999999,-0.18652339999999998,0.9765625,-0.06103516,-0.12207029999999999,90.66467,-13.10669,-51.06995,38.59167,-86.58334,79.75833,1
27199,0.2119141,0.9736328,-0.1728516,0.42724609999999996,-0.793457,-0.06103516,90.25269,-12.94189,-51.026,38.73333,-86.675,79.21667,1
27499,0.23339839999999998,0.9863280999999999,-0.21289059999999999,-0.5493163999999999,0.9155272999999999,0.0,90.60425,-12.99133,-51.07544,16.49167,-2.716667,-0.1416667,1
27739,0.22949219999999998,0.9770508,-0.1835938,-1.89209,0.7324219,-0.6103516,90.35706,-12.96387,-51.15784,38.925,-86.68333,79.125,1
28019,0.22509769999999998,0.9721679999999999,-0.16650389999999998,0.24414059999999999,0.4882813,0.3051758,90.01099,-12.87598,-50.93262,38.775,-86.78333,79.40833,1
28319,0.22119139999999998,0.9746094,-0.1518555,-0.06103516,0.3662109,-0.4882813,89.88464,-12.90344,-50.80627,16.70833,-3.033333,-0.05,1
28559,0.21435549999999998,0.9799804999999999,-0.1601563,0.7324219,-0.24414059999999999,0.12207029999999999,89.81873,-12.81006,-50.83923,16.76667,-3.041667,0.08333334,1
28880,0.2241211,0.9755859,-0.1733398,-0.06103516,0.9155272999999999,-0.5493163999999999,89.98352,-12.88147,-50.98206,16.75,-2.833333,-0.06666667,1
29109,0.2246094,0.9765625,-0.16650389999999998,-0.3662109,-0.1831055,-0.12207029999999999,89.95056,-12.81006,-50.76233,16.74167,-2.95,0.05,1
29320,0.2280273,0.9750977,-0.16699219999999998,0.1831055,-0.42724609999999996,-0.3662109,90.0769,-12.86499,-51.02051,38.75834,-86.75833,79.29166,1
29559,0.22119139999999998,0.9780272999999999,-0.17382809999999999,0.06103516,0.9155272999999999,-0.4882813,90.10986,-12.80457,-50.93811,16.725,-2.925,-0.03333333,1
29799,0.21875000000000003,0.9780272999999999,-0.1723633,0.793457,-0.4882813,0.24414059999999999,90.04944,-12.6947,-50.91614,38.85,-86.86667,79.35,1
30059,0.22558589999999998,0.9741211,-0.1796875,-0.3051758,0.3662109,-0.3662109,90.05493,-12.7002,-50.92163,16.63333,-2.958333,0.0,1
30329,0.2275391,0.980957,-0.1806641,0.42724609999999996,-0.6103516,-0.06103516,90.02197,-12.72217,-50.97656,16.71667,-3.091667,-0.025,1
30550,0.22070309999999999,0.9721679999999999,-0.1533203,-1.342773,-0.06103516,0.5493163999999999,89.73083,-12.72217,-50.71838,38.74166,-86.89167,79.13333,1
30829,0.22216799999999998,0.9731445,-0.16259769999999998,1.037598,0.06103516,0.06103516,89.87915,-12.6947,-50.8667,38.83333,-86.73333,79.14167,1
31129,0.2202148,0.9790038999999999,-0.17822269999999998,1.953125,-1.342773,0.06103516,90.22522,-12.60681,-51.14136,16.775,-3.158333,0.2166667,1
31370,0.21337889999999998,0.9760742,-0.171875,0.24414059999999999,1.342773,-1.098633,90.10986,-12.56287,-50.98755,16.61667,-2.875,0.1083333,1
31639,0.21728519999999998,0.9707030999999999,-0.1791992,-0.9155272999999999,-1.708984,0.0,90.13184,-12.55188,-51.15234,39.15833,-86.69167,79.29166,1
31939,0.21289059999999999,0.9819336,-0.1728516,2.13623,0.8544921999999999,-0.7324219,90.14832,-12.50793,-51.17981,17.38333,-4.15,0.15833329999999998,1
32189,0.22900389999999998,0.953125,-0.1376953,2.929688,-1.89209,-0.3051758,90.27466,-13.0188,-50.83374,16.825,-3.441667,0.48333329999999997,1
32469,0.19726559999999999,0.9599609,-0.1259766,3.051758,-1.037598,1.342773,90.84595,-12.54639,-51.07544,16.8,-3.6,0.5333333,1
32800,0.2241211,0.9672852,-0.190918,-4.272461,0.3051758,-1.586914,91.19202,-12.7002,-51.20728,16.50833,-2.533333,0.01666667,1
33109,0.2275391,0.9760742,-0.19775389999999998,-4.02832,1.220703,-1.220703,91.01074,-12.54639,-51.09741,16.51667,-2.633333,-0.5583332999999999,1
33349,0.20556639999999998,0.9780272999999999,-0.1699219,-1.098633,0.0,0.0,90.42297,-12.30469,-50.97107,16.61667,-2.741667,0.17500000000000002,1
33559,0.22119139999999998,0.9702147999999999,-0.1630859,1.89209,0.42724609999999996,0.1831055,90.63171,-12.65625,-51.05896,38.975,-86.58334,79.69167,1
33799,0.2089844,0.9799804999999999,-0.1611328,-1.220703,0.1831055,-3.051758,90.53284,-12.37061,-51.00403,16.325,-1.95,1.141667,1
34049,0.2124023,0.953125,-0.1079102,0.7324219,-1.342773,2.624512,90.85144,-12.90344,-50.7019,38.46667,-86.61667,79.625,1
34279,0.2192383,0.9794921999999999,-0.1958008,4.333496,-1.6479489999999999,-0.3051758,91.64246,-12.90344,-51.13037,16.74167,-3.558333,0.2833333,1
34559,0.23730469999999998,0.9882812999999999,-0.215332,0.9155272999999999,-0.7324219,0.5493163999999999,91.97754,-12.88696,-51.28418,16.74167,-3.55,-0.09166667,1
34779,0.22509769999999998,0.9755859,-0.1870117,-1.098633,0.4882813,-0.5493163999999999,91.54907,-12.84302,-51.1853,38.86666,-86.30833,79.86667,1
35049,0.2158203,0.9780272999999999,-0.1923828,-0.3662109,-0.3051758,0.793457,91.18103,-12.82104,-50.93262,38.73333,-86.33334,79.85,1
35369,0.22949219999999998,0.9790038999999999,-0.1933594,-0.7324219,-0.3051758,1.586914,91.03271,-13.02979,-50.99854,16.53333,-3.133333,0.0,1
35599,0.2314453,0.9741211,-0.1850586,-0.42724609999999996,0.42724609999999996,-0.06103516,90.88989,-13.18359,-50.96558,16.6,-3.15,0.06666667,1
35869,0.2314453,0.9746094,-0.1884766,1.464844,0.0,-0.8544921999999999,91.0437,-13.11218,-50.97656,38.525,-86.34167,79.83334,1
36169,0.22070309999999999,0.9726562999999999,-0.18164059999999999,0.4882813,-0.1831055,-0.12207029999999999,91.16455,-13.0188,-50.91614,16.63333,-3.308333,0.125,1
36419,0.2280273,0.9726562999999999,-0.1948242,0.4882813,0.12207029999999999,0.4882813,91.26343,-13.20007,-51.00403,16.55,-3.308333,0.06666667,1
36700,0.234375,0.9707030999999999,-0.19775389999999998,-0.06103516,0.42724609999999996,0.0,91.21399,-13.32092,-50.96558,16.575,-3.266667,0.0,1
37029,0.2324219,0.9697266,-0.18945309999999999,-0.3662109,-0.24414059999999999,-0.6713867,91.24695,-13.30444,-50.98755,16.66667,-3.458333,-0.1416667,1
37339,0.2387695,0.9775391,-0.19433589999999998,-1.342773,0.24414059999999999,-1.342773,90.81848,-13.04626,-50.9491,16.65833,-3.141667,-0.2583333,1
37569,0.2202148,0.9755859,-0.1767578,-0.3662109,0.12207029999999999,0.5493163999999999,90.47791,-12.854,-50.75134,16.68333,-3.1,0.08333334,1
37789,0.215332,0.9677734,-0.17041019999999998,-0.24414059999999999,1.342773,0.24414059999999999,90.48889,-12.87048,-50.83923,38.81667,-86.39167,79.94167,1
38030,0.2275391,0.9746094,-0.1884766,-0.3662109,-1.098633,0.0,90.46692,-12.90894,-50.81177,16.66667,-3.058333,-0.008333334000000001,1
38269,0.22509769999999998,0.9711913999999999,-0.17822269999999998,0.06103516,-1.159668,-0.1831055,90.401,-12.82104,-50.8667,38.95833,-86.46667,79.89167,1
38509,0.2182617,0.9770508,-0.1855469,0.12207029999999999,0.793457,0.24414059999999999,90.39001,-12.77161,-50.85022,16.7,-3.116667,-0.05,1
38789,0.22216799999999998,0.9765625,-0.18603519999999998,-0.5493163999999999,-1.281738,0.5493163999999999,90.33508,-12.82654,-50.9436,16.59167,-3.025,0.008333334000000001,1
39009,0.2192383,0.9760742,-0.1772461,-0.24414059999999999,0.3662109,-0.06103516,90.25269,-12.82654,-51.03699,38.90833,-86.58334,79.65833,1
39289,0.22119139999999998,0.9750977,-0.1923828,0.4882813,0.3051758,-0.5493163999999999,90.41748,-12.76062,-51.07544,39.075,-86.45,79.78333,1
39579,0.2167969,0.9799804999999999,-0.1928711,-0.12207029999999999,-0.06103516,-0.3051758,90.37903,-12.66174,-50.97656,16.675,-3.25,-0.05833333,1
40929,0.2275391,0.9741211,-0.1875,-0.3662109,0.0,0.5493163999999999,90.20874,-12.82654,-50.87769,16.66667,-3.1,-0.008333334000000001,1
41229,0.2260742,0.9755859,-0.1855469,0.12207029999999999,0.24414059999999999,-0.06103516,90.23621,-12.82654,-50.92163,16.59167,-3.1,-0.025,1
41499,0.2167969,0.9804687999999999,-0.19042969999999998,-1.281738,0.1831055,0.06103516,90.1593,-12.78259,-50.85022,38.93333,-86.55833,79.65833,1
41809,0.2080078,0.9599609,-0.1635742,-0.06103516,-0.42724609999999996,-0.5493163999999999,89.599,-12.79907,-50.72388,16.7,-3.016667,0.36666669999999996,1
42049,0.2319336,0.9794921999999999,-0.1914063,-0.6713867,-0.9765625,-1.220703,90.36255,-12.79907,-51.13586,16.61667,-3.016667,0.0,1
42329,0.21777339999999998,0.9814453,-0.1733398,-1.586914,-1.281738,0.6103516,90.3241,-12.65076,-50.99304,39.15,-86.33334,80.0,1
42599,0.2319336,0.9716796999999999,-0.2011719,1.464844,0.24414059999999999,-0.4882813,90.70313,-12.76062,-51.21826,16.65833,-3.55,0.04166667,1
42879,0.21875000000000003,0.9711913999999999,-0.1870117,-0.4882813,-2.197266,0.6103516,90.58777,-12.60132,-51.1908,16.63333,-3.275,0.05,1
43090,0.2265625,0.9716796999999999,-0.2182617,0.06103516,3.417969,-0.793457,90.68665,-12.55188,-51.20178,16.74167,-3.225,0.03333333,1
43299,0.2275391,0.9741211,-0.19042969999999998,1.708984,-1.159668,0.6713867,90.69763,-12.60681,-51.33911,39.15,-86.2,80.025,1
43539,0.2260742,0.9824219,-0.1967773,-0.3662109,2.380371,-0.8544921999999999,90.73059,-12.54639,-51.03699,16.66667,-3.35,-0.05,1
43809,0.2109375,0.9760742,-0.1918945,0.9155272999999999,-2.746582,0.8544921999999999,90.63721,-12.54639,-51.09741,16.76667,-3.4,-0.01666667,1
44029,0.2226563,0.9741211,-0.1962891,0.42724609999999996,1.342773,-0.4882813,90.52185,-12.58484,-51.22375,39.18333,-86.35833,80.05833,1
44269,0.2114258,0.9755859,-0.1914063,-0.12207029999999999,0.5493163999999999,0.0,90.37354,-12.48047,-51.026,16.675,-3.125,0.08333334,1
44519,0.21777339999999998,0.9887695,-0.21289059999999999,-1.342773,0.12207029999999999,0.0,90.41199,-12.48596,-51.11389,16.33333,-2.458333,0.2083333,1
44729,0.230957,0.9780272999999999,-0.22070309999999999,0.9155272999999999,0.6713867,-1.037598,91.29089,-12.3761,-51.22925,39.375,-86.06667,80.10833,1
44969,0.20556639999999998,0.9760742,-0.20166019999999998,-2.502441,0.0,0.9765625,91.02173,-12.48047,-51.15784,16.475,-3.033333,0.3083333,1
45249,0.2119141,0.9702147999999999,-0.1728516,-2.319336,1.342773,-0.6103516,90.69763,-12.44751,-51.11389,39.25834,-86.34167,79.80833,1
45529,0.21337889999999998,0.9736328,-0.15625,-2.685547,0.24414059999999999,-1.342773,90.74158,-12.56287,-51.11389,38.98333,-86.39167,79.725,1
45819,0.2006836,0.9853516,-0.1914063,4.211426,-0.9765625,-0.1831055,91.04919,-12.35962,-51.25671,16.60833,-3.108333,0.6583333,1
46069,0.2026367,0.9614258,-0.1630859,-2.319336,2.13623,-0.12207029999999999,91.48865,-12.38708,-51.65222,39.25,-85.96667,80.03333,1
46349,0.20947269999999998,0.9619141,-0.1870117,2.258301,-0.42724609999999996,1.464844,91.91162,-12.50793,-51.44348,39.20833,-86.0,80.39167,1
46649,0.2163086,0.9765625,-0.20166019999999998,0.24414059999999999,-0.06103516,0.12207029999999999,92.20276,-12.65076,-51.58081,16.675,-3.525,0.008333334000000001,1
46939,0.2114258,0.9755859,-0.20556639999999998,-1.220703,-0.42724609999999996,0.0,91.98303,-12.40356,-51.52588,39.4,-86.05833,80.35833,1
47189,0.22070309999999999,0.9750977,-0.19775389999999998,-0.12207029999999999,0.9155272999999999,0.4882813,91.88416,-12.43652,-51.427,16.70833,-3.433333,-0.01666667,1
47449,0.22070309999999999,0.9780272999999999,-0.2011719,-0.6713867,-0.12207029999999999,0.3662109,91.80176,-12.56287,-51.3446,16.65833,-3.108333,-0.2916667,1
47649,0.2119141,0.980957,-0.1884766,-3.2958979999999998,1.525879,-0.3051758,90.95581,-12.35413,-51.13037,39.25834,-86.49167,79.59167,1
47899,0.2158203,0.9755859,-0.17822269999999998,2.502441,-0.9765625,0.0,90.81299,-12.34863,-51.25671,16.73333,-3.216667,0.36666669999999996,1
48150,0.20605469999999998,0.9746094,-0.1801758,-0.3662109,-1.8310549999999999,0.12207029999999999,91.30188,-12.38159,-51.20728,39.24166,-86.25833,79.86667,1
48389,0.22216799999999998,0.9716796999999999,-0.1918945,-0.06103516,1.281738,-0.6713867,91.35132,-12.43103,-51.48743,16.775,-3.133333,-0.1833333,1
48670,0.215332,0.980957,-0.19384769999999998,0.0,-1.220703,0.0,91.02173,-12.31018,-51.30066,39.35833,-86.34167,79.80833,1
48969,0.2006836,0.9726562999999999,-0.1728516,0.793457,-1.464844,0.9765625,91.14807,-12.01355,-51.28418,16.68333,-3.266667,0.1166667,1
49269,0.2080078,0.9770508,-0.1923828,-0.3051758,0.24414059999999999,0.0,91.29639,-12.18933,-51.37207,39.35,-86.30833,79.99167,1
49589,0.1992188,0.9750977,-0.1987305,0.12207029999999999,0.12207029999999999,0.5493163999999999,91.01624,-12.20581,-51.25671,16.73333,-3.158333,-0.05,1
49879,0.2260742,0.9853516,-0.20166019999999998,0.0,2.685547,-1.6479489999999999,90.93933,-12.30469,-51.24573,39.25,-86.45834,79.83334,1
50179,0.2236328,0.9741211,-0.1835938,1.342773,-1.89209,0.3051758,90.86792,-12.34863,-51.30066,39.21667,-86.425,79.90833,1
50449,0.21289059999999999,0.9780272999999999,-0.190918,-1.098633,1.7700200000000001,-0.9765625,90.9613,-12.27722,-51.24573,16.6,-3.025,-0.03333333,1
50699,0.2109375,0.9799804999999999,-0.1948242,0.06103516,-0.42724609999999996,0.12207029999999999,90.86792,-12.32117,-51.14136,39.2,-86.275,79.875,1
51009,0.2167969,0.9770508,-0.1918945,0.3662109,-0.24414059999999999,-0.06103516,90.78003,-12.33765,-51.16882,16.6,-3.233333,-0.05833333,1
51309,0.21386719999999998,0.9780272999999999,-0.18945309999999999,-1.220703,1.403809,0.12207029999999999,90.4834,-12.32117,-51.02051,16.6,-3.016667,-0.1333333,1
51649,0.21777339999999998,0.9750977,-0.18603519999999998,1.098633,0.3662109,-0.3051758,90.37354,-12.34863,-51.14136,16.68333,-3.191667,0.1166667,1
51879,0.21386719999999998,0.9765625,-0.190918,0.0,-0.8544921999999999,0.3051758,90.44495,-12.31018,-51.07544,39.25834,-86.43333,79.66666,1
52129,0.2197266,0.9780272999999999,-0.1884766,1.342773,-0.42724609999999996,0.0,90.45044,-12.3761,-51.24573,16.625,-3.066667,0.05,1
52369,0.21289059999999999,0.9785155999999999,-0.1992188,0.42724609999999996,0.42724609999999996,0.7324219,90.43396,-12.32117,-51.04248,39.275,-86.46667,79.91666,1
52609,0.215332,0.9770508,-0.1884766,-0.1831055,0.12207029999999999,-0.24414059999999999,90.37354,-12.32117,-51.05896,16.75,-3.225,-0.025,1
52879,0.2104492,0.9790038999999999,-0.1850586,-0.06103516,0.0,0.0,90.32959,-12.2937,-51.03149,16.75,-3.266667,-0.25,1
53099,0.2104492,0.9887695,-0.1772461,-5.310059,0.0,-1.89209,89.94507,-12.03552,-51.026,16.525,-2.45,-0.03333333,1
53319,0.2382813,0.9931641,-0.2202148,0.6103516,0.6713867,4.394531,90.42297,-12.51892,-50.97656,16.35833,-2.45,-0.1166667,1
53609,0.21728519999999998,0.9882812999999999,-0.190918,0.0,-1.89209,-1.7700200000000001,90.57129,-12.48596,-51.31165,39.28333,-86.55833,79.69167,1
53859,0.2236328,0.9746094,-0.1845703,0.0,0.5493163999999999,0.0,90.61523,-12.41455,-51.25671,16.53333,-3.108333,-0.01666667,1
54109,0.20166019999999998,0.9848633,-0.190918,0.9155272999999999,0.3662109,-0.6103516,90.68115,-12.2168,-51.2677,39.45833,-86.29166,79.79166,1
54409,0.21777339999999998,0.9731445,-0.1850586,-1.6479489999999999,-0.6713867,0.9765625,90.47791,-12.47498,-51.20728,39.16667,-86.45,79.75,1
54679,0.2167969,0.980957,-0.1811523,-1.037598,0.8544921999999999,-0.5493163999999999,90.401,-12.43103,-51.15234,16.775,-2.925,-0.1083333,1
54929,0.20507809999999999,0.9804687999999999,-0.1611328,0.4882813,-0.5493163999999999,0.1831055,90.47791,-12.37061,-51.12488,39.35,-86.425,79.8,1
55229,0.2182617,0.9658203,-0.1777344,1.7700200000000001,0.0,0.8544921999999999,90.49438,-11.91467,-51.24573,16.83333,-3.05,-0.17500000000000002,1
55539,0.2006836,0.9790038999999999,-0.1772461,-1.6479489999999999,-0.12207029999999999,1.403809,90.25818,-12.32117,-51.17432,16.88333,-3.283333,-0.125,1
55839,0.1928711,0.9877929999999999,-0.1674805,0.4882813,0.5493163999999999,-0.8544921999999999,90.10437,-12.26074,-51.08093,16.70833,-3.108333,-0.008333334000000001,1
56209,0.2036133,0.9790038999999999,-0.1713867,-0.3051758,0.793457,-1.586914,89.99451,-12.10693,-51.15784,39.48333,-86.58334,79.45834,1
56480,0.1879883,0.9887695,-0.1806641,-2.01416,2.319336,-0.06103516,89.97803,-12.06299,-51.10291,16.91667,-2.925,-0.15833329999999998,1
57829,0.2270508,0.9750977,-0.16259769999999998,-1.220703,-1.342773,0.0,89.68689,-12.27173,-51.026,39.26667,-86.9,79.18333,1
58059,0.2192383,0.9790038999999999,-0.16601559999999999,0.06103516,2.01416,0.24414059999999999,89.54956,-12.25525,-51.07544,16.79167,-2.966667,0.01666667,1
58299,0.21386719999999998,0.9785155999999999,-0.17041019999999998,-0.1831055,-1.464844,0.4882813,89.57703,-12.3761,-50.95459,16.96667,-3.0,-0.075,1
58519,0.2109375,0.9814453,-0.1650391,-0.5493163999999999,0.6103516,-0.3051758,89.599,-12.41455,-51.00952,16.625,-2.766667,0.04166667,1
58739,0.2124023,0.9804687999999999,-0.1645508,0.9155272999999999,-0.7324219,0.3662109,89.77478,-12.43103,-51.09192,16.73333,-3.033333,0.06666667,1
58949,0.2167969,1.001953,-0.20947269999999998,-1.403809,0.8544921999999999,-0.5493163999999999,90.13733,-12.41455,-51.21277,39.26667,-86.64167,79.41666,1
59189,0.2114258,0.9633788999999999,-0.1381836,2.502441,-0.3662109,0.3051758,90.14832,-12.38159,-51.38306,17.05833,-4.083333,-0.2,1
59439,0.2124023,0.9604492,-0.1416016,3.540039,-1.525879,1.037598,90.28015,-12.92542,-51.08643,16.99167,-3.9333329999999997,0.2166667,1
59739,0.21386719999999998,0.9765625,-0.1679688,1.220703,-0.6103516,-0.3051758,90.85144,-12.60681,-51.29517,39.18333,-86.53333,79.775,1
60049,0.230957,0.9755859,-0.1791992,0.06103516,-1.525879,1.525879,90.46143000000001,-12.96936,-51.44897,38.95,-86.81667,79.375,1
60309,0.22900389999999998,0.9780272999999999,-0.17871089999999998,1.708984,1.037598,2.01416,90.62073,-13.30444,-51.30615,16.675,-3.041667,0.05833333,1
60559,0.24462889999999998,0.9663086,-0.1694336,-0.42724609999999996,0.7324219,0.6103516,90.54382,-13.64502,-51.25671,38.14167,-86.88333,79.525,1
60869,0.2265625,0.9746094,-0.1699219,1.037598,2.319336,-2.319336,90.52734,-13.41431,-50.95459,16.55,-2.883333,0.03333333,1
61169,0.22509769999999998,0.9741211,-0.18212889999999998,0.793457,-0.06103516,-0.1831055,90.63721,-13.2605,-50.87219,38.54167,-86.59167,80.08334,1
61510,0.22167969999999998,0.9760742,-0.1811523,-0.9765625,-0.6103516,-0.06103516,90.38452,-13.13965,-50.92163,16.71667,-3.116667,-0.08333334,1
61739,0.23681639999999998,0.9760742,-0.1806641,-0.12207029999999999,0.0,0.0,90.25269,-13.17261,-50.99854,16.625,-3.033333,0.09166667,1
61929,0.23339839999999998,0.9780272999999999,-0.1835938,-0.06103516,-0.3051758,-0.06103516,90.31311,-13.22754,-51.026,16.6,-3.3,-0.1083333,1
62139,0.2075195,0.9741211,-0.1616211,-0.42724609999999996,1.586914,-0.12207029999999999,90.0769,-13.08472,-50.88867,16.81667,-2.891667,0.06666667,1
62349,0.22851559999999999,0.980957,-0.1772461,2.13623,-0.9155272999999999,-0.7324219,90.29114,-13.02979,-50.93262,38.60833,-86.76667,79.63333,1
62599,0.2226563,0.9731445,-0.18164059999999999,0.0,0.3662109,-1.464844,90.33508,-12.86499,-50.97656,16.65833,-2.858333,-0.17500000000000002,1
62849,0.2202148,0.9799804999999999,-0.171875,-0.7324219,0.0,-1.281738,90.17578,-12.65076,-50.83374,16.73333,-2.966667,-0.1,1
63059,0.21777339999999998,0.9819336,-0.1992188,1.098633,-0.42724609999999996,0.42724609999999996,90.43945,-12.72217,-50.86121,38.75,-86.56667,79.925,1
63309,0.22070309999999999,0.9785155999999999,-0.1948242,0.8544921999999999,-0.4882813,0.0,90.59875,-12.74414,-51.06995,16.46667,-2.9333329999999997,-0.09166667,1
63579,0.230957,0.9707030999999999,-0.1879883,-1.89209,-3.173828,0.12207029999999999,90.62622,-12.89795,-51.29517,39.03333,-86.69167,79.525,1
63869,0.2182617,0.9731445,-0.18212889999999998,-0.1831055,0.06103516,0.1831055,90.47791,-12.73865,-51.1853,38.88334,-86.58334,79.79166,1
64259,0.2387695,0.9848633,-0.2006836,-0.7324219,0.0,0.6713867,90.52734,-12.75513,-51.27869,16.975,-3.208333,0.24166669999999998,1
64489,0.2109375,0.9829102,-0.1923828,0.0,1.525879,-0.7324219,90.59326,-12.62878,-51.27869,16.725,-3.175,-0.06666667,1
64789,0.22998049999999998,0.9755859,-0.1889648,0.9765625,-1.8310549999999999,0.6713867,90.4834,-12.90894,-50.9436,38.825,-86.65,79.91666,1
65099,0.234375,0.980957,-0.1875,-0.3051758,-0.1831055,-0.1831055,90.35706,-12.90894,-51.11389,16.64167,-2.541667,0.1,1
65410,0.21289059999999999,0.9638671999999999,-0.1577148,-2.685547,-0.1831055,0.3662109,90.09338,-12.8595,-51.11938,16.525,-2.766667,0.35000000000000003,1
65709,0.2226563,0.9794921999999999,-0.1518555,-0.24414059999999999,-1.586914,-2.563477,90.51086,-12.74414,-51.21826,16.83333,-2.975,-0.3083333,1
66079,0.2182617,0.9790038999999999,-0.18261719999999998,-1.403809,-1.403809,0.9765625,90.44495,-12.49695,-51.09192,39.2,-86.49167,80.01667,1
66339,0.2231445,0.9765625,-0.1699219,-1.342773,-0.24414059999999999,0.12207029999999999,90.3186,-12.60132,-51.31165,16.60833,-3.0,0.0,1
66589,0.21875000000000003,0.9716796999999999,-0.1694336,0.3051758,-0.1831055,0.4882813,90.23621,-12.63977,-51.27319,39.03333,-86.68333,79.33334,1
66829,0.2236328,0.9633788999999999,-0.171875,0.4882813,-2.01416,-1.098633,90.4834,-12.64526,-51.37756,17.125,-3.591667,-0.7000000000000001,1
67069,0.1928711,0.9711913999999999,-0.15039059999999999,0.24414059999999999,1.953125,-4.394531,89.85718,-12.01355,-51.29517,16.975,-2.708333,0.625,1
67279,0.2197266,0.9213867,-0.052734380000000004,4.272461,-0.3662109,1.89209,90.53284,-12.51343,-51.10291,39.225,-86.50833,79.61667,1
67539,0.234375,0.9506836,-0.09960938,-0.3051758,-2.075195,-3.540039,90.61523,-12.6947,-51.21826,16.45833,-3.1,0.1666667,1
67809,0.2226563,0.980957,-0.1923828,0.6713867,0.24414059999999999,1.281738,90.91187,-12.4585,-51.44348,39.1,-86.46667,79.89167,1
68090,0.2226563,0.9697266,-0.1811523,0.06103516,1.403809,-1.342773,90.8075,-12.58484,-51.33362,39.14167,-86.575,79.78333,1
68389,0.2148438,0.9819336,-0.1987305,0.6103516,-0.793457,0.12207029999999999,90.77454,-12.60132,-51.19629,16.55833,-3.058333,0.2583333,1
68629,0.2260742,0.9775391,-0.190918,0.0,-0.7324219,1.7700200000000001,91.24146,-12.95288,-51.44348,38.93333,-86.38333,79.86667,1
68899,0.2192383,0.9819336,-0.17822269999999998,-1.098633,0.12207029999999999,0.5493163999999999,90.61523,-13.24402,-51.36108,38.51667,-86.8,79.775,1
69199,0.22949219999999998,0.9643554999999999,-0.184082,-0.42724609999999996,0.0,-0.1831055,90.5603,-13.41431,-51.22925,16.55833,-3.041667,-0.15833329999999998,1
69450,0.2236328,0.9794921999999999,-0.1572266,-1.220703,2.319336,-2.13623,90.12085,-12.99133,-51.22375,16.53333,-2.925,0.09166667,1
69729,0.22216799999999998,0.9931641,-0.1420898,-14.4043,3.78418,-6.713867,89.34631,-12.35413,-50.58655,17.10833,-2.325,-3.558333,1
70059,0.1933594,0.9858397999999999,-0.02929688,-56.39648,10.13184,-18.31055,79.25537,-9.063721,-48.15308,19.08333,1.716667,-8.291667,1
70369,0.1098633,1.124023,0.33398439999999996,-31.06689,15.07568,0.793457,62.23206,-4.471436,-45.97778,16.19167,7.633333,-1.8666669999999999,1
70599,0.07617188,0.8979492,0.4160156,10.74219,29.72412,16.47949,61.21582,-3.587036,-41.36353,14.20833,4.875,4.091667,1
70819,-0.001464844,0.8491211,0.1474609,34.11865,32.65381,19.47021,69.54895,-4.9493409999999995,-28.49854,33.18333,-94.6,67.0,1
71059,-0.06445313,0.9282227,0.18212889999999998,34.05762,37.53662,1.464844,73.98743,-4.960327,-20.79712,17.225,2.141667,2.9333329999999997,1
71299,0.17871089999999998,1.092285,0.0625,7.751465,37.29248,7.629395,78.24463,-5.180054,-13.49121,16.1,1.3,0.1833333,1
71509,0.1987305,0.9638671999999999,-0.04345703,1.464844,47.66846,-8.239746,77.95349,-3.169556,-1.450195,19.375,-91.06667,75.96667,1
71759,-0.09326172,1.410645,0.4057617,-5.92041,46.44775,62.01172,79.74976,-1.554565,9.695435,20.14167,1.766667,0.9416667,1
72040,-0.0234375,0.9213867,0.13134769999999998,0.5493163999999999,20.69092,-3.601074,81.21643,-1.235962,17.07825,10.925,-90.04166,74.24167,1
72319,0.07128906,0.9716796999999999,0.07275391,-12.39014,-24.78027,4.577637,78.65662,-2.307129,17.968140000000002,9.85,-90.80833,71.99167,1
72609,0.1259766,1.171387,0.2036133,23.98682,7.8125,-12.08496,79.03015,-3.131104,15.1886,20.15833,4.458333,0.49166669999999996,1
72859,0.1772461,0.9580078,0.15039059999999999,-5.493164,21.97266,8.178711,81.11755,-4.542847,16.02905,9.083333,-90.16666,72.83334,1
73129,0.12695309999999999,1.009277,-0.06787109,26.7334,36.9873,-5.432129,81.89758,-2.164307,22.42859,8.075,-89.89167,72.58334,1
74549,-0.128418,1.254395,0.15039059999999999,2.868652,26.9165,6.164551,84.54529,-6.745605,27.90527,3.325,-89.39167,72.41666,1
74829,0.09814453000000001,0.9023437999999999,0.06542969,-12.57324,-16.78467,-8.300781,83.70483,-4.586792,27.185670000000002,16.4,-0.8666667,-1.366667,1
75079,0.22558589999999998,1.227539,0.33349609999999996,17.08984,-19.22607,-36.49902,82.73254,-4.372559,20.52795,21.56667,4.075,-0.9083334,1
75359,0.1992188,0.8994141,0.16699219999999998,-13.3667,-19.83643,2.258301,82.21069,-3.850708,7.382813,14.95833,-93.725,74.18333,1
75659,0.1538086,1.023926,-0.04443359,-2.746582,24.96338,-6.591797,80.97473,-3.081665,8.470459,17.125,-2.8083329999999997,1.808333,1
75939,0.011230470000000001,0.887207,0.1538086,2.13623,6.103516,-11.77979,84.11133,-5.29541,20.6543,7.433333,-92.79166,73.50833,1
76199,0.03515625,1.003906,-0.05761719,-11.23047,-4.943848,6.225586,81.9635,-5.410767,22.20886,17.10833,-1.416667,0.925,1
76449,0.2695313,1.114258,0.1640625,-6.9580079999999995,-15.19775,3.601074,84.60571,-1.461182,17.12219,11.43333,-94.39167,75.6,1
76689,0.07470703000000001,0.8666992,0.04785156,-10.55908,-1.586914,-2.685547,83.72681,-4.015503,18.43506,17.35,-1.375,-0.7333333,1
76929,0.1289063,0.9980469,-0.0625,11.2915,15.07568,2.685547,82.77649,-2.999268,19.39087,15.48333,5.358333,-0.2083333,1
77149,0.13525389999999998,0.9135742,0.1323242,3.051758,-1.6479489999999999,-8.544922,85.2594,-7.619019,24.16992,3.491667,-92.58334,75.61667,1
77389,0.137207,1.062988,-0.08447266,-14.28223,-12.93945,2.258301,83.89709,-7.3718259999999995,23.42285,16.54167,-2.05,1.25,1
77669,-0.09277344,1.094238,0.34130859999999996,9.460449,-22.76611,-70.67871,85.92407,-3.779297,20.50049,19.04167,2.425,-1.508333,1
77879,0.06835938,0.8569336,0.07910156,-12.146,-5.493164,-8.544922,83.11707,-4.284668,17.57263,10.1,-95.01667,76.73333,1
78119,0.1796875,1.046387,-0.07421875,14.52637,1.89209,-0.3662109,82.58972,-2.828979,16.27075,19.41667,5.108333,1.466667,1
78369,0.02685547,1.019531,0.13916019999999998,1.464844,-36.07178,-11.77979,86.29211,-6.525879,14.26575,10.44167,-92.24167,80.64167,1
78639,0.1030273,1.010742,-0.03125,-14.70947,-46.69189,1.342773,84.76501,-6.251221,5.894165,17.14167,-0.1166667,-1.9000000000000001,1
78880,0.1074219,0.9414062999999999,0.2460938,-5.004883,-25.93994,-30.2124,83.93005,-3.120117,1.472168,20.70833,-93.65,80.01667,1
79189,0.10888669999999999,0.8916016,0.06005859,-13.5498,19.9585,1.159668,81.40869,-5.344849,2.785034,17.03333,-0.2666667,0.5666667,1
79519,-0.09570313,1.279785,0.3071289,3.173828,29.72412,87.1582,82.95227,-7.185059,15.01282,19.13333,3.258333,1.283333,1
79799,0.02294922,0.8330078,0.04541016,-7.019043,9.94873,4.882813,83.45764,-7.163086,23.35693,4.858333,-89.73333,76.03333,1
80069,0.01806641,1.119629,-0.1435547,12.20703,-17.76123,2.13623,82.771,-7.893677,22.87903,18.74167,5.991667,1.575,1
80349,0.1572266,0.8627929999999999,0.10888669999999999,-4.089355,22.88818,15.38086,84.89136,-4.526367,20.4071,14.40833,0.8666667,-1.216667,1
80559,0.10888669999999999,0.984375,-0.09472656,8.911133,13.91602,-2.441406,82.70508,-3.394775,23.23608,7.925,-90.50833,74.99167,1
80799,-0.1499023,1.274902,0.13525389999999998,4.821777,12.63428,4.211426,84.33105,-8.591309,28.39417,15.65833,2.558333,-0.5666667,1
81089,0.1040039,0.8989258,0.041015630000000004,-10.55908,-11.41357,-4.943848,83.63892,-6.437988,26.72974,16.475,-1.775,-1.3,1
81279,0.1464844,1.061523,-0.03808594,-1.89209,-33.14209,-7.202148,81.93054,-6.773071,21.32996,16.84167,4.5,2.033333,1
81509,0.1850586,0.8569336,0.1552734,-4.577637,-8.056641,17.8833,83.99597,-3.78479,10.5304,13.35,-91.84167,76.51667,1
81749,0.1479492,0.9038086,-0.04736328,-0.5493163999999999,24.6582,-4.02832,82.38647,-4.812012,11.90918,16.30833,-1.1,2.05,1
81999,-0.11425779999999999,1.408691,0.05859375,12.69531,39.0625,-0.42724609999999996,86.34155,-10.22827,23.89526,15.63333,2.541667,0.3416667,1
82340,0.078125,1.077637,-0.022460940000000002,-9.82666,0.7324219,5.310059,84.88037,-8.052979,28.59741,18.36667,-1.325,-0.3833333,1
82609,0.22119139999999998,1.077148,0.1870117,-10.37598,-34.11865,-27.9541,84.81445,-2.576294,25.42236,6.583333,-92.375,74.76667,1
82879,0.13916019999999998,0.8486328,0.09765625,-12.93945,-5.554199,5.67627,83.13904,-4.251709,21.74194,15.975,0.2916667,-0.7833333,1
83119,0.1567383,1.169434,-0.09082031,22.82715,22.82715,8.239746,82.90833,-3.405762,22.64282,6.216667,-92.63333,75.46667,1
83419,0.024902340000000002,0.9492187999999999,0.1235352,-4.882813,-10.49805,-16.90674,83.51257,-7.23999,25.70251,14.625,0.4166667,-1.825,1
83759,0.19775389999999998,1.270508,0.07617188,9.94873,-9.277344,-13.48877,81.84265,-7.564087,23.57666,14.04167,5.75,-0.5,1
84039,0.1557617,0.9067383,0.09570313,-3.051758,5.493164,11.23047,83.88611,-4.520874,19.03931,13.741670000000001,1.2,-1.05,1
84369,0.1933594,0.9453125,-0.1152344,17.8833,22.09473,1.708984,82.23816,-3.389282,21.67603,22.04167,5.166667,1.258333,1
84679,-0.017089840000000002,1.017578,0.1455078,-4.760742,-10.62012,-4.821777,85.12756,-7.844238,27.49878,15.01667,0.6416666999999999,-1.383333,1
84909,0.06494141,0.9780272999999999,-0.04199219,-15.80811,-41.44287,5.065918,82.97424,-7.921143,22.79114,17.65,-0.7166667,-0.5583332999999999,1
85129,0.3354492,1.217285,0.18994139999999998,3.2958979999999998,-57.73926,-21.42334,85.35828,-2.702637,9.42627,15.95833,-90.98333,80.275,1
85399,0.10498049999999999,0.8120117,0.046875,-2.929688,-3.051758,3.2958979999999998,85.06714,-4.32312,5.158081,15.866670000000001,-0.625,-0.6083333,1
85609,0.09814453000000001,1.078613,0.01904297,21.05713,49.07227,15.13672,84.57825,-3.389282,12.40356,13.65833,-90.71667,79.05833,1
85849,0.028808590000000002,0.8999022999999999,0.1293945,1.525879,0.3662109,-12.69531,85.9021,-9.244995,18.68225,16.1,0.975,-0.9833333999999999,1
86129,-0.03515625,0.8994141,-0.008300781,-8.056641,7.8125,3.845215,84.17175,-7.7618409999999995,19.90723,18.79167,0.08333334,-0.6666667,1
86350,0.07763672,0.7890625,0.34130859999999996,6.408691,1.281738,-33.99658,85.01221,-5.718384,20.15991,9.25,-89.81667,77.80833,1
86629,0.07714844,0.8828125,0.015625,-13.79395,0.4882813,-2.258301,85.0177,-5.185547,20.495,8.308333,-89.84167,77.36667,1
86919,0.13134769999999998,1.038574,-0.06884766,2.197266,21.1792,-1.281738,82.9248,-3.7133789999999998,22.99438,20.85833,4.583333,2.4,1
87169,0.03710938,0.824707,0.1674805,-2.746582,-10.55908,-16.72363,84.22119,-7.844238,26.90002,15.15833,1.15,-1.916667,1
87439,0.10693359999999999,1.007324,0.01855469,-5.004883,-14.03809,0.6713867,81.39771,-7.34436,23.18665,5.091667,-90.50833,73.85,1
87709,0.1953125,1.185059,0.2480469,-3.845215,-48.76709,-28.74756,84.23767,-3.048706,17.40234,17.03333,2.0,0.7583333,1
87979,0.128418,0.9150391,-0.01318359,-7.263184,11.1084,-9.887695,82.78198,-4.641724,14.99634,18.675,-0.9666665999999999,0.275,1
88259,0.4780273,0.8154296999999999,0.2880859,-2.380371,14.09912,25.57373,84.01245,-7.783813,22.52197,4.858333,-90.45,75.25,1
88539,0.04394531,0.8930663999999999,0.01953125,-14.16016,-2.197266,8.117676,81.18347,-6.328125,21.26404,6.391667,-92.13333,72.75,1
88839,-0.05908203,0.9243163999999999,0.34179689999999996,5.67627,-15.80811,-43.09082,83.03467,-5.306396,18.5614,9.341666,-92.34167,75.46667,1
89179,0.04003906,0.840332,0.04296875,-11.23047,-1.525879,-6.896973,82.24365,-5.427246,19.70398,8.55,-92.875,74.13333,1
89419,0.1733398,1.047852,-0.09375000000000001,13.85498,20.93506,0.8544921999999999,81.7218,-4.037476,20.35767,15.9,3.6,1.316667,1
89629,0.08007813,1.054688,0.19824219999999998,-0.42724609999999996,32.04346,3.845215,83.56201,-9.228516,26.74622,16.58333,2.533333,-0.7833333,1
89839,0.09912109000000001,1.003906,-0.06347656,-7.8125,-9.58252,6.04248,80.93079,-7.827759,28.61389,2.025,-91.075,72.35,1
91189,0.07763672,1.128906,-0.07714844,6.835938,-21.11816,-3.173828,81.46362,-7.300415,27.70752,4.008333,-90.18333,73.95,1
91439,0.1889648,1.156738,0.168457,-1.159668,-26.55029,-3.2958979999999998,84.49036,-2.285156,21.30798,15.03333,1.466667,-0.2333333,1
91639,0.08007813,0.8295897999999999,0.05371094,-14.64844,-5.310059,-2.258301,83.35876,-4.740601,20.12146,18.075,-1.008333,-0.3083333,1
91859,-0.1376953,1.300781,0.3583984,15.44189,4.089355,60.85205,83.85864,-5.784302,22.43958,6.983333,-89.7,76.05,1
92099,-0.06542969,0.9072266,0.152832,9.155273,-0.4882813,-14.03809,84.33655,-8.190308,26.46606,15.81667,0.48333329999999997,-1.541667,1
92379,0.09423828000000001,0.9438477,-0.07128906,0.1831055,-24.10889,3.356934,82.66113,-7.855225,23.20862,5.683333,-88.88333,75.275,1
92689,0.234375,0.8295897999999999,0.08935547,-7.995605,13.00049,24.29199,84.776,-4.96582,16.3092,14.60833,1.316667,-2.525,1
92980,0.1035156,1.070313,-0.01464844,-0.7324219,10.86426,-3.2958979999999998,81.52954,-4.32312,17.69348,10.225,-90.825,74.68333,1
93289,0.06103516,0.8725586,0.1713867,-5.7983400000000005,-0.3051758,-12.51221,83.13904,-7.322388,23.77991,16.825,1.2,-2.525,1
93609,0.14697269999999998,1.100586,0.03808594,-7.995605,-12.87842,2.685547,79.10706,-7.619019,20.93994,21.90833,3.7,3.05,1
93889,0.26318359999999996,1.005371,0.1767578,8.789063,7.324219,19.65332,81.75476,-4.108887,15.41931,10.84167,-91.50833,73.80833,1
94169,0.08984375,0.7812500000000001,0.008789063,0.9155272999999999,6.530762,-13.24463,80.9967,-4.866943,18.89648,19.36667,-0.04166667,-0.05833333,1
94409,0.06884766,1.095703,0.2416992,7.507324,31.31104,24.53613,83.49609,-8.849487,22.89001,4.35,-88.83334,74.15833,1
94749,-0.05615234,0.8427734,-0.07373047,-8.850098,-8.850098,13.00049,82.62817,-8.146362,25.53223,18.70833,0.525,-0.55,1
94989,0.1630859,1.017578,0.20605469999999998,-11.1084,-32.40967,-23.92578,84.10034,-3.043213,18.86353,10.375,-91.075,75.25,1
95229,0.1533203,0.8642578,0.04541016,-21.1792,-1.708984,4.333496,82.5238,-5.410767,15.82031,16.16667,-0.85,-0.7416667,1
95469,-0.01904297,1.313965,0.3369141,24.23096,9.094238,46.81396,83.0072,-6.196289,17.60559,8.741667,-90.9,75.15833,1
95709,-0.03466797,0.8730469,0.1484375,1.464844,8.117676,-17.08984,83.47412,-8.4375,21.76941,15.725,0.4666667,-1.116667,1
95979,-0.01855469,0.9067383,-0.06494141,-8.972168,-4.760742,13.06152,81.6449,-7.289429,21.45081,20.475,0.7666666999999999,-0.9916666999999999,1
96209,-0.1303711,0.934082,0.1445313,14.89258,-12.02393,-11.04736,82.40845,-5.586548,20.84656,17.13333,3.541667,-0.2666667,1
96419,0.2124023,0.8745117,0.07617188,-3.173828,4.272461,4.699707,83.27637,-5.284424,11.84875,12.64167,-92.04166,76.25,1
96659,0.07470703000000001,1.118164,-0.06542969,6.164551,-1.464844,-6.713867,83.35876,-4.295654,13.48022,18.65833,-2.033333,2.858333,1
96919,0.09521484000000001,1.038086,0.1201172,-7.446289,2.13623,-9.58252,86.71509,-9.019775,13.06274,16.975,0.8916666,-1.3333329999999999,1
97210,0.06494141,1.188965,-0.02929688,-13.79395,-6.652832,0.0,83.54553,-8.250732,13.04077,10.60833,-91.09167,76.775,1
97519,0.21777339999999998,1.015625,0.1484375,0.0,-12.26807,13.00049,83.96851,-3.861694,5.427246,15.85,0.9166667,-1.258333,1
97849,0.21435549999999998,1.1323239999999999,-0.052734380000000004,9.033203,22.46094,-10.43701,80.26062,-5.053711,11.43127,18.41667,-4.091667,3.575,1
98129,0.03222656,1.3354489999999999,0.10498049999999999,-2.197266,3.173828,-8.850098,84.28711,-9.20105,17.33093,8.883333,-89.44167,76.19167,1
98410,0.06542969,1.01709,-0.06201172,-1.403809,-9.70459,1.7700200000000001,82.47437,-7.723389,14.7052,10.90833,-90.325,75.375,1
98709,0.1655273,1.09082,0.137207,2.746582,-31.12793,10.13184,85.87463,-3.312378,6.394043,18.125,-90.3,77.78333,1
99009,0.125,0.7998046999999999,0.024902340000000002,-10.43701,-10.37598,-9.094238,84.23767,-5.388794,3.2958979999999998,19.75833,-0.7416667,-0.6083333,1
99319,0.002929688,1.327637,0.1411133,-3.540039,4.943848,2.685547,84.2981,-9.920654,5.284424,14.96667,-90.29166,76.98333,1
99589,0.08300781,0.8417969,-0.01171875,-12.69531,11.2915,-2.075195,82.63367,-8.344116,5.147095,16.34167,-0.1166667,-0.6416666999999999,1
99829,-0.01269531,1.003906,0.37158199999999997,10.92529,-30.70068,-48.9502,84.12231,-6.069946,2.785034,19.8,-91.03333,76.675,1
100069,0.2573242,0.7792969,0.12207029999999999,-10.43701,9.033203,15.99121,85.73181,-5.042725,-3.537598,13.00833,1.241667,-1.141667,1
100309,0.18261719999999998,1.19043,-0.18261719999999998,17.63916,32.77588,4.943848,83.82568,-4.663696,2.081909,19.96667,-91.25,76.425,1
100549,0.1577148,1.0,0.203125,-9.033203,17.02881,-12.3291,84.75952,-9.772339,7.393799,17.44167,2.058333,-0.7166667,1
100840,0.1025391,1.033203,0.01220703,-1.586914,-8.178711,-0.12207029999999999,81.67236,-7.970581,9.354858,14.125,-91.20834,74.45834,1
101149,0.1699219,1.028809,0.1679688,-1.281738,-39.85596,5.065918,83.23792,-2.70813,1.466675,15.11667,1.825,-0.7916667,1
101440,0.20605469999999998,1.1166989999999999,-0.02587891,8.056641,7.385254,-12.02393,80.99121,-4.400024,-0.9173583999999999,21.78333,-92.76667,74.50833,1
101749,-0.007324219000000001,1.389648,0.07128906,2.868652,-0.5493163999999999,-13.24463,84.68262,-8.734131,4.251709,15.84167,2.275,-0.31666669999999997,1
102079,0.07373047,1.052734,-0.07763672,-8.239746,-8.483887,6.591797,81.35376,-7.305908,2.433472,18.23333,-1.758333,0.6000000000000001,1
102359,0.2358398,1.078125,0.18603519999999998,-0.3662109,-19.104,4.211426,83.28735,-3.186035,-2.37854,23.20833,-92.03333,76.33334,1
102619,0.02978516,0.7812500000000001,0.02978516,-4.394531,8.178711,-4.394531,82.75452,-5.454712,-1.268921,16.775,-0.9083334,0.8583333999999999,1
102869,0.03662109,1.026367,0.2402344,13.5498,5.065918,59.57031,84.07288,-6.454468,2.70813,17.68333,-90.69167,77.66666,1
103179,0.09570313,0.8940429999999999,-0.0009765625,-15.31982,7.873535,-3.601074,83.34778,-6.399536,6.245728,16.23333,-0.2,-1.0,1
103509,0.2915039,1.095703,0.45019529999999996,8.911133,-6.103516,-36.74316,83.0072,-5.19104,4.487915,21.04167,2.866667,0.5,1
103819,0.10107419999999999,0.8305663999999999,0.07763672,-14.95361,-12.146,1.8310549999999999,82.89734,-4.345093,-0.37353519999999996,15.44167,-0.075,-0.225,1
104050,0.046875,1.12793,0.1557617,18.67676,14.16016,19.40918,82.60071,-3.982544,-0.4888916,22.06667,-91.18333,76.80833,1
104299,-0.01074219,0.8735352,0.1386719,-0.9765625,0.9765625,-13.3667,83.61694,-7.311401,2.329102,17.14167,0.9166667,-1.55,1
104539,0.03076172,0.8984375,0.01757813,-14.64844,-0.3662109,5.493164,81.75476,-6.251221,2.213745,18.46667,-0.1166667,-0.8833333,1
104749,-0.15087889999999998,1.037109,0.3007813,-0.3051758,-31.92139,-32.40967,82.56775,-3.603516,-3.883667,24.75833,-92.06667,75.15833,1
105029,0.1464844,0.8959961,0.09863281,-6.286621,-20.20264,5.92041,82.83142,-5.042725,-8.22876,14.65,1.041667,-1.208333,1
105269,0.2192383,1.145996,-0.04638672,0.24414059999999999,-2.807617,-8.361816,81.37573,-3.88916,-11.37085,18.25833,-1.683333,1.608333,1
105489,0.08496094,1.09375,0.17431639999999998,-5.126953,14.77051,8.789063,82.72156,-9.195557,-9.058228,16.9,2.9333329999999997,-1.141667,1
105759,-0.01074219,0.9023437999999999,-0.02929688,-6.591797,-5.310059,10.86426,79.80469,-7.833252,-7.844238,23.65833,-93.66666,72.30833,1
106039,0.08154297,0.9560546999999999,0.34179689999999996,21.97266,-0.3051758,-33.81348,82.38647,-6.740112,-9.662476,22.31667,3.591667,0.55,1
106309,0.08007813,0.7939453,0.09960938,-6.774902,13.42773,2.075195,83.13904,-6.196289,-11.77734,15.95833,-0.3333333,-0.2583333,1
106579,0.04394531,1.174316,0.2963867,14.5874,18.12744,33.20313,83.26538,-5.020752,-7.662964,24.3,-93.44167,75.35833,1
106849,-0.002441406,0.7885742,0.1611328,9.216309,0.24414059999999999,-15.13672,83.77075,-7.706909,-4.685669,15.25833,1.216667,-1.4,1
108199,0.026367190000000002,0.8574219,-0.01855469,-16.11328,-14.64844,9.277344,81.26038,-6.800537,-22.94495,19.65,-0.375,-0.8583333999999999,1
108509,0.11621089999999999,1.152832,0.3056641,8.972168,-65.7959,-34.91211,83.3313,-3.076172,-33.98621,39.46667,-96.03333,70.88333,1
108809,0.1708984,0.7587891,-0.009277344,-0.6103516,-18.79883,-15.19775,81.85913,-5.317383,-42.85767,41.53333,-97.08334,67.925,1
109079,0.2348633,1.276367,-0.06933594,12.63428,26.42822,10.49805,82.64465,-3.609009,-41.66016,13.53333,6.8,-1.133333,1
109359,0.08300781,1.000488,0.1279297,-10.92529,-8.911133,-10.86426,82.94678,-6.685181,-40.43518,16.56667,0.5750000000000001,-2.658333,1
109569,0.07568359,1.058594,-0.10888669999999999,5.859375,-9.399414,1.7700200000000001,80.07385,-7.036743,-41.48438,39.39167,-97.35,68.11667,1
109809,0.2084961,1.111328,0.203125,-3.356934,-34.79004,-11.77979,82.69958,-3.334351,-46.54907,14.575,1.433333,-0.4333333,1
110079,0.16601559999999999,0.8759766,0.04003906,-9.70459,0.1831055,4.333496,81.87561,-5.921631,-49.8999,15.975,-0.65,0.1833333,1
110289,0.07128906,1.11377,-0.03125,7.8125,15.38086,-6.713867,80.81543,-4.345093,-49.42749,22.88333,5.366667,2.616667,1
110509,0.03173828,0.8437500000000001,0.11669919999999999,4.211426,-9.216309,-20.87402,83.80371,-7.89917,-46.241460000000004,42.60833,-95.03333,69.55833,1
110759,0.01757813,0.9414062999999999,-0.02587891,-12.69531,-7.8125,13.12256,81.8042,-6.547852,-48.24646,20.225,0.2083333,-1.366667,1
110999,0.07275391,1.06543,0.24853519999999998,4.02832,-49.07227,-26.36719,83.11707,-3.339844,-53.82202,48.7,-93.03333,65.94167,1
111249,0.16259769999999998,0.8461913999999999,0.06787109,-8.056641,-25.5127,4.455566,82.98523,-5.476685,-61.0675,14.741670000000001,0.325,-0.8083332999999999,1
111520,0.08300781,1.135254,0.08789063,14.34326,19.16504,22.64404,82.47986,-5.696411,-62.04529,48.9,-93.54166,62.08333,1
111829,0.05175781,1.010254,0.09716797,-5.310059,2.990723,-9.94873,83.19397,-8.377075,-57.40906,13.88333,0.525,-1.641667,1
112119,0.1811523,1.294922,0.04296875,12.146,-18.18848,-19.53125,81.9635,-8.052979,-60.5127,48.99166,-92.54166,62.14167,1
112419,0.07519531,0.8359375,0.05224609,-12.02393,-14.09912,12.51221,84.26514,-5.097656,-67.23083,14.125,0.1416667,-2.108333,1
112729,0.175293,1.205078,-0.03417969,20.99609,16.17432,12.26807,82.51282,-4.779053,-70.45532,52.89167,-90.81667,57.25834,1
113039,0.10498049999999999,1.003418,0.08935547,-10.25391,4.699707,-6.408691,85.04517,-9.069214,-67.42859,49.83333,-92.025,59.18333,1
113309,0.06884766,1.1875,-0.008789063,-11.23047,-3.112793,0.0,81.35376,-9.162598,-65.98389,23.24167,-0.44166669999999997,0.35000000000000003,1
113589,0.2089844,1.055176,0.1772461,-0.4882813,-17.51709,1.7700200000000001,82.66113,-4.421997,-71.8396,15.26667,1.133333,-0.15,1
113789,0.06787109,0.8125,0.06640625,-21.48438,-3.173828,-12.63428,81.25488,-5.85022,-71.40015,19.075,-0.9833333999999999,0.7083332999999999,1
113980,0.1230469,1.274902,-0.01953125,18.43262,23.4375,14.34326,80.99121,-4.185791,-69.85107,13.46667,5.225,1.391667,1
114179,0.015136720000000001,0.9536133,0.2587891,4.272461,34.05762,-0.5493163999999999,83.02368,-9.415283,-63.06152,15.175,2.291667,-1.025,1
114399,0.09863281,0.8413086,-0.008789063,-9.033203,20.87402,8.117676,81.65039,-7.970581,-59.66125,17.39167,-0.03333333,-0.2083333,1
114629,-0.19775389999999998,1.078125,0.27001949999999997,20.87402,-36.74316,-33.87451,83.79272,-5.333862,-62.63855,51.46667,-90.01667,60.45,1
114889,0.1459961,0.8374022999999999,0.1123047,-5.065918,10.19287,12.20703,84.1333,-6.300659,-65.24231,13.10833,1.3333329999999999,-2.283333,1
115150,0.2104492,1.244141,-0.07910156,8.728026999999999,13.67188,4.943848,81.69983,-4.130859,-67.67029,52.93333,-89.7,56.56667,1
115429,0.02294922,0.9311522999999999,0.1123047,3.78418,18.37158,-16.8457,81.96899,-7.542114,-62.84729,50.24166,-91.2,58.45833,1
115719,-0.0546875,0.9414062999999999,0.01025391,-7.324219,13.12256,7.8125,80.14526,-5.213013,-58.77686,20.0,-1.391667,-0.6000000000000001,1
115969,0.125,0.9946288999999999,0.2666016,12.146,-50.90332,-21.11816,82.78198,-2.598267,-64.94568,54.01667,-88.81667,56.61666,1
116239,0.1601563,0.8852538999999999,0.01367188,-14.46533,-34.30176,-15.86914,81.27686,-4.367065,-75.15747,54.025,-89.175,50.46667,1
116549,0.2260742,1.201172,-0.0009765625,15.25879,17.21191,10.43701,82.05139,-4.389038,-76.85486,14.36667,5.958333,-1.125,1
116789,0.08056641,0.9628905999999999,0.1201172,-2.502441,7.69043,-15.50293,82.64465,-7.745361,-72.98767,15.00833,1.1,-2.441667,1
117059,0.12451169999999999,1.02002,-0.12744139999999998,0.5493163999999999,-35.64453,5.737305,79.21692,-8.069458,-71.04858,50.03333,-91.66666,49.99166,1
117339,0.3120117,1.077148,0.1523438,9.521484,-13.24463,2.990723,81.78223,-3.7133789999999998,-77.15698,15.475,2.666667,0.75,1
117609,0.1577148,0.8847655999999999,-0.007324219000000001,-2.13623,-13.85498,-15.625,80.66711,-5.894165,-73.94897,18.26667,0.45,-0.03333333,1
117930,0.1923828,1.009766,0.2011719,-7.873535,40.89355,26.9165,80.73853,-8.690186,-70.58716,14.84167,4.441667,0.5666667,1
118159,0.001953125,0.8032227,0.02148438,-3.967285,0.06103516,7.141113,79.72229,-6.564331,-61.72119,48.45833,-92.25833,55.21667,1
118399,0.1411133,1.144043,0.3115234,11.65771,-17.57813,-33.81348,81.0791,-5.608521,-64.90723,18.41667,3.725,0.9,1
118639,0.2080078,0.9287109,0.1767578,-2.075195,-31.31104,12.81738,82.81494,-3.988037,-73.45459,15.725,1.683333,-1.358333,1
118849,0.19433589999999998,1.135742,-0.05615234,5.310059,29.60205,-5.126953,80.94727,-4.21875,-76.16821,52.3,-90.41666,49.075,1
119099,0.25,0.828125,0.41943359999999996,6.713867,24.96338,40.77148,83.02917,-7.7618409999999995,-69.88953,18.75833,3.45,0.7166667,1
119380,0.125,0.7294921999999999,0.006347656,-12.57324,9.094238,3.417969,82.37,-7.34436,-65.04456,47.61666,-92.95,55.75,1
119659,-0.1923828,0.9946288999999999,0.34375000000000006,10.31494,-8.056641,-40.95459,83.68286,-4.476929,-65.7312,50.00834,-91.65,56.88334,1
119949,0.1113281,0.8623046999999999,0.1289063,-5.310059,-6.103516,12.63428,84.64966,-5.251465,-68.36243,14.925,0.9833333999999999,-1.316667,1
120199,0.24511719999999998,1.030762,-0.12255859999999999,4.638672,37.78076,3.417969,82.38098,-3.911133,-68.87329,50.35,-91.35833,56.475,1
120479,0.05859375,0.9785155999999999,0.21435549999999998,-1.098633,-12.93945,-14.09912,83.92456,-7.849731,-63.95691,47.275,-92.56667,58.56667,1
120769,0.04736328,0.8583984,0.0625,-7.446289,30.45654,9.887695,82.78748,-6.756592,-63.26477,20.49167,0.7083332999999999,-0.5083333,1
121009,-0.01757813,0.9736328,0.3227539,2.990723,-27.16064,-43.70117,82.02393,-3.449707,-59.85901,17.55833,2.625,-0.1416667,1
121289,0.168457,0.9150391,0.08447266,-12.87842,-20.1416,9.399414,82.19421,-4.685669,-71.35071,50.63334,-91.4,52.85833,1
121569,0.2109375,1.133301,-0.01953125,1.220703,11.84082,1.220703,80.56824,-4.037476,-74.20715,23.10833,5.158333,2.066667,1
121839,-0.0234375,0.9238280999999999,0.2661133,-1.037598,15.93018,-14.5874,81.49109,-9.047241,-69.14246,16.70833,2.125,-0.8666667,1
122149,0.1040039,1.182617,0.028808590000000002,4.577637,8.300781,-0.9765625,79.82117,-7.311401,-62.45178,20.91667,7.683333,2.483333,1
122380,0.2109375,0.9311522999999999,0.1533203,5.92041,-16.41846,15.99121,84.22119,-3.674927,-68.82385,50.26667,-91.08334,56.39167,1
122629,0.1713867,0.8442383,0.0,-6.713867,-7.995605,-17.45605,82.51282,-4.031982,-70.43884,20.05,-1.175,0.2166667,1
122869,-0.009765625,1.453125,0.44335939999999996,11.1084,22.3999,48.33984,83.97949,-4.784546,-67.17041,19.325,2.9333329999999997,1.875,1
123079,0.09960938,0.8925780999999999,0.07421875,-14.64844,-7.93457,-6.347656,82.90283,-7.388306,-63.45154,46.55,-92.65,58.65,1
123319,0.19824219999999998,1.055176,0.01074219,0.3051758,0.7324219,-3.601074,80.52979,-7.844238,-64.64905,17.25,7.041667,2.541667,1
124699,0.07568359,1.145508,0.2124023,8.666992,-21.42334,-31.79932,83.76526,-4.229736,-68.85681,51.525,-89.975,57.51667,1
124979,0.1411133,0.8549804999999999,0.105957,-11.41357,8.422852,6.164551,83.88611,-5.756836,-68.56018,15.01667,-0.3333333,-0.65,1
125219,0.08447266,1.390625,0.27001949999999997,10.62012,27.46582,31.06689,82.9303,-4.581299,-67.01111,50.43333,-90.48333,58.34167,1
125469,-0.06298828000000001,0.9062500000000001,0.253418,-0.5493163999999999,7.93457,-10.37598,82.83142,-8.031006,-62.76489,16.68333,0.9500000000000001,-0.6916667,1
125709,0.1757813,1.000977,0.002929688,-9.460449,-23.01025,1.586914,79.83215,-7.426758,-66.67053,49.45,-91.58334,55.75834,1
125979,0.23779299999999998,1.303223,0.20166019999999998,4.699707,-40.22217,-16.11328,82.22717,-4.026489,-73.37219,15.80833,3.4,-0.225,1
126219,0.19384769999999998,0.9204102,-0.01611328,-5.432129,-4.699707,-15.50293,80.98022,-4.932861,-77.34375,53.76667,-89.29166,51.55833,1
126519,-0.06005859,1.324219,0.1723633,8.300781,43.45703,14.83154,83.172,-9.574585,-69.60388,16.98333,3.016667,-0.06666667,1
126830,0.1171875,0.8696288999999999,-0.02197266,0.6713867,0.06103516,6.9580079999999995,80.72754,-8.272705,-65.67627,48.51667,-91.71667,57.65833,1
127139,0.2739258,1.262695,0.1831055,-1.586914,-27.9541,-8.056641,84.27612,-3.630981,-72.44934,53.425,-89.04166,56.5,1
127409,0.03808594,0.8447266,0.07666016,-8.361816,17.82227,-2.685547,83.38623,-5.564575,-71.30676,16.325,-0.375,-0.7000000000000001,1
127689,0.07177734,1.127441,0.2617188,16.11328,28.44238,27.16064,82.41943,-4.586792,-64.75342,18.06667,4.616667,0.6666667,1
127889,-0.04541016,1.055176,0.21875000000000003,-5.126953,16.11328,-9.094238,82.97974,-8.547363,-57.73315,16.13333,1.8,-1.1,1
128080,0.10839839999999999,0.7709961,0.05078125,-13.73291,7.751465,2.319336,81.11755,-7.212524,-56.651,18.55833,1.25,-0.7166667,1
128289,0.09179688,1.106934,-0.1689453,0.1831055,-48.21777,-7.019043,79.94751,-8.047485,-58.68347,17.23333,6.341667,0.7833333,1
128499,0.3198242,1.07373,0.17382809999999999,3.234863,-35.52246,-7.93457,82.00195,-3.076172,-67.8241,14.85,2.35,-0.05833333,1
128709,0.1323242,0.9296875,0.0625,-8.911133,-4.943848,-14.52637,80.65613,-4.411011,-66.74744,51.69167,-89.90833,57.31667,1
128969,0.03320313,1.291992,0.04296875,14.09912,23.19336,18.24951,81.06262,-3.55957,-64.2041,10.81667,6.041667,-0.525,1
129239,0.08642578000000001,1.008301,0.2392578,-4.882813,10.98633,3.78418,81.35376,-7.503662,-61.68823,16.325,2.6,0.3416667,1
129449,0.03369141,0.9272461,0.028808590000000002,-3.112793,0.9155272999999999,10.74219,80.55176,-6.075439,-60.09521,48.53333,-91.16666,60.775,1
129689,0.2011719,1.094238,0.3681641,10.74219,-17.02881,-35.88867,81.95801,-5.603027,-64.38538,17.875,4.016667,1.25,1
129939,0.0859375,0.9458008,0.07226563,-7.019043,19.47021,8.911133,84.51233,-4.279175,-65.73669,51.05,-89.53333,60.58333,1
130219,0.1870117,0.9628905999999999,0.048828130000000004,2.380371,9.70459,-8.789063,82.65015,-3.218994,-65.22583,20.59167,-1.483333,0.6583333,1
130460,0.05029297,1.056641,0.2001953,-0.9155272999999999,17.33398,15.80811,82.83691,-7.56958,-60.49072,47.575,-90.9,62.20833,1
130769,0.1040039,0.8544921999999999,0.05957031,-8.422852,7.8125,14.89258,81.75476,-5.910645,-59.36462,18.58333,1.033333,-1.125,1
131069,-0.1879883,0.8452147999999999,0.3662109,2.929688,-26.79443,-43.27393,82.2821,-4.064941,-64.77539,51.325,-89.39167,58.64167,1
131379,0.1152344,0.8955078,0.05566406,2.258301,13.67188,3.540039,83.77625,-5.059204,-67.43958,15.125,0.35833329999999997,-0.09166667,1
131709,-0.03710938,1.208496,0.2124023,7.995605,16.72363,28.44238,84.08936,-3.922119,-62.85278,16.0,4.491667,0.3833333,1
132030,0.1025391,0.9902344,0.09472656,-7.019043,-3.845215,-17.8833,83.90259,-6.223755,-60.97412,15.23333,0.45,-2.058333,1
132379,0.03173828,0.9140625,0.37939449999999997,12.02393,-4.882813,-43.02979,83.58398,-3.6859129999999998,-64.23706,17.13333,3.458333,0.775,1
132649,0.1494141,0.890625,0.10693359999999999,2.258301,-0.42724609999999996,18.12744,84.84741,-2.763062,-68.03833,14.88333,0.8416665999999999,-1.825,1
132859,0.19726559999999999,0.8383788999999999,0.0009765625,-1.586914,-13.91602,-11.59668,82.73804,-3.186035,-70.32898,18.225,-0.325,-1.208333,1
133069,0.1806641,0.8461913999999999,0.2915039,4.577637,21.54541,27.40479,83.27087,-7.921143,-66.42334,48.075,-90.78333,59.20833,1
133320,0.11865229999999999,0.9770508,0.1298828,-5.004883,-9.887695,-7.446289,83.73779,-7.509155,-67.98889,14.3,1.466667,-2.325,1
133569,0.1572266,1.115723,-0.1176758,0.9765625,-28.19824,-1.464844,81.59546,-8.102417,-70.52673,15.81667,7.233333,1.858333,1
133870,0.1772461,0.8754883,0.11865229999999999,12.87842,27.58789,22.27783,85.91309,-5.454712,-72.01538,50.425,-89.625,57.89167,1
134179,0.1538086,1.080078,-0.01953125,-0.7324219,14.28223,-5.493164,82.88635,-4.54834,-70.44434,51.11666,-89.04166,57.25834,1
134449,-0.02929688,1.067871,0.203125,2.01416,17.76123,15.19775,83.27087,-8.377075,-65.76416,15.325,3.466667,-0.6083333,1
134690,0.06542969,0.9541016,0.0234375,-21.05713,9.521484,7.324219,80.77148,-6.361084,-65.03906,48.38334,-90.73333,57.00834,1
134999,-0.04833984,0.9267578,0.3710938,13.06152,-9.155273,-51.26953,81.66687,-4.350586,-66.18713,17.4,3.133333,1.175,1
135289,0.1044922,0.8295897999999999,0.1201172,-17.33398,-12.146,-6.774902,81.89209,-4.713135,-67.12097,50.70833,-89.5,56.31667,1
135589,0.23291019999999998,0.7539062999999999,0.2978516,-8.666992,-0.24414059999999999,37.96387,82.39197,-6.849976,-68.29651,48.8,-90.64167,56.66667,1
135879,0.03613281,0.8735352,0.07861328000000001,-9.399414,1.220703,-3.601074,82.38647,-6.899414,-65.8905,48.45833,-90.7,56.95,1
136179,0.1293945,0.9775391,0.4648438,19.104,-23.86475,-48.46191,82.94128,-5.905151,-70.92773,51.01667,-89.475,55.25,1
136519,0.09130859,0.9169921999999999,0.08935547,-8.850098,28.13721,-0.24414059999999999,84.90784,-5.234985,-71.7627,16.675,-0.3416667,-0.5916667,1
136749,0.1279297,1.039063,0.01074219,1.403809,20.01953,1.6479489999999999,83.04565,-3.647461,-67.63733,22.275,1.308333,1.816667,1
136969,0.10839839999999999,0.8256836,0.24902339999999998,3.601074,33.08105,30.82275,84.51233,-7.443237,-62.72644,18.26667,4.025,0.2916667,1
137179,0.02783203,0.8027344,-0.01074219,-1.89209,14.09912,4.272461,85.51208,-6.844482,-59.34265,47.44167,-89.96667,63.06667,1
137429,0.11474609999999999,1.238281,-0.10644529999999999,8.300781,-29.72412,-8.422852,84.96277,-7.047729,-61.34216,13.54167,3.8,1.566667,1
137689,0.21386719999999998,1.057129,0.1875,-2.380371,-36.8042,1.89209,87.54456,-3.565063,-68.67004,15.725,1.425,-1.9000000000000001,1
137909,0.23681639999999998,0.9375,-0.01318359,0.793457,18.73779,-7.69043,83.35876,-5.020752,-69.96094,51.33333,-89.14167,57.10833,1
138159,0.144043,1.146484,0.1806641,7.873535,30.0293,26.30615,84.10583,-5.998535,-62.77039,18.14167,3.9,0.15,1
138399,-0.006347656,0.9736328,0.1044922,-4.760742,17.39502,-2.624512,83.44116,-7.102661,-50.152590000000004,45.05,-90.55,66.21667,1
138689,0.03955078,1.058594,-0.0009765625,-2.13623,-34.79004,-0.8544921999999999,81.33179,-6.893921,-51.24023,19.45,1.4,1.475,1
138919,0.2583008,1.095215,0.1953125,5.432129,-31.37207,7.202148,84.51233,-3.383789,-66.43982,51.88334,-88.74167,59.1,1
139219,0.2080078,1.091309,0.03564453,-2.01416,-4.882813,-10.37598,82.73804,-3.6804200000000002,-69.82361,19.44167,-0.7083332999999999,0.01666667,1
139519,0.1118164,0.9291992,0.3076172,-7.8125,15.38086,18.67676,82.09534,-7.316895,-69.47205,50.475,-90.225,56.00834,1
139819,0.06933594,0.9575195,0.12744139999999998,-13.91602,14.52637,-0.793457,79.53003,-6.201782,-64.82483,50.275,-90.3,55.75,1
140099,0.1342773,1.073242,0.03808594,3.173828,-27.9541,-0.793457,77.40967,-6.61377,-65.37964,18.13333,0.7416667,0.7666666999999999,1
141459,0.09521484000000001,1.041504,0.1689453,-10.25391,-12.81738,3.417969,79.35425,-6.981812,-66.15417,21.24167,-0.6083333,-0.1166667,1
141749,0.20605469999999998,1.086914,0.2114258,2.929688,-21.78955,-13.00049,81.12854,-4.389038,-75.08606,53.55,-88.35,50.74166,1
142089,0.1279297,0.8793945,0.10693359999999999,-1.342773,-12.75635,-7.568359,82.57324,-6.641235,-76.70654,17.79167,0.2916667,-0.3416667,1
142299,0.1987305,1.039063,-0.1015625,8.911133,18.85986,-3.2958979999999998,82.69958,-5.361328,-77.20093,19.81667,5.091667,1.641667,1
142510,0.05615234,1.094727,0.24560549999999998,0.12207029999999999,45.16602,16.41846,83.49609,-8.618774,-69.69727,16.78333,4.633333,-0.2833333,1
142719,0.01416016,0.9550780999999999,0.1572266,-3.4790039999999998,32.65381,-2.746582,82.79297,-7.327881,-62.79785,15.15,1.083333,-1.25,1
142929,0.1171875,1.260254,-0.01025391,-1.7700200000000001,-31.37207,-10.25391,80.78796,-6.970825,-61.32568,49.525,-90.06667,57.36666,1
143179,0.1196289,0.918457,0.2275391,3.2958979999999998,-31.61621,-19.53125,82.27661,-3.88916,-67.64832,16.78333,3.458333,0.24166669999999998,1
143429,0.144043,0.8627929999999999,0.05029297,-8.056641,-9.82666,-11.84082,83.27637,-5.515137,-71.07056,52.39167,-89.04166,53.94167,1
143670,0.2832031,1.068848,-0.09375000000000001,13.42773,19.22607,-0.3662109,83.19946,-4.3396,-71.0376,16.73333,5.6,-0.1416667,1
143939,-0.0034179690000000003,1.121582,0.1914063,0.6103516,29.84619,10.62012,84.63318,-8.349609,-65.46753,18.73333,3.6,-0.275,1
144160,0.01416016,0.8496094,0.05859375,-6.347656,9.155273,6.9580079999999995,82.771,-6.921387,-59.90845,48.63334,-90.975,59.25,1
144439,0.07861328000000001,1.007813,0.27099609999999996,8.422852,-19.04297,-28.86963,82.60071,-5.603027,-63.94043,51.16667,-90.28333,56.525,1
144729,0.121582,0.9916992,0.24560549999999998,15.25879,-8.239746,15.86914,83.17749,-4.191284,-69.45007,17.83333,0.9833333999999999,-0.24166669999999998,1
144980,0.20556639999999998,0.9960937999999999,0.1035156,-1.403809,8.605957,-5.859375,80.6012,-6.047974,-70.04883,19.725,1.608333,-0.6916667,1
145249,0.05761719,0.7006836,0.20996089999999998,3.234863,30.09033,2.258301,80.71106,-6.751099,-65.2478,50.3,-91.55833,54.93333,1
145559,0.001464844,1.040527,0.1870117,3.78418,15.13672,-8.728026999999999,81.60095,-7.212524,-59.0625,16.06667,1.791667,-0.675,1
145799,0.09130859,0.9960937999999999,-0.02197266,5.737305,-30.45654,0.793457,81.03516,-6.882935,-59.64478,14.75,3.425,2.483333,1
146109,0.19042969999999998,1.007813,0.1254883,5.371094,-10.37598,22.27783,85.84717,-4.608765,-70.13672,14.25833,2.6,-1.391667,1
146350,0.1650391,1.034668,0.015625,-5.065918,11.53564,-9.033203,83.0072,-4.707642,-70.97168,53.33333,-89.09167,54.89167,1
146589,-0.24414059999999999,1.376953,0.40283199999999997,5.371094,30.45654,66.22314,84.42444,-5.614014,-64.14368,21.65833,2.125,1.433333,1
146829,0.121582,1.000488,0.18212889999999998,-6.713867,-17.82227,-9.521484,84.82544,-6.954346,-61.92444,14.325,1.725,-1.258333,1
147039,0.184082,1.098145,-0.03857422,-5.67627,-12.63428,1.159668,82.55676,-6.833496,-65.48401,51.44167,-89.1,57.23333,1
147279,-0.26318359999999996,0.9506836,0.2827148,8.178711,-48.46191,-28.56445,84.36401,-2.93335,-72.25708,16.36667,3.641667,0.31666669999999997,1
147569,0.13525389999999998,0.9580078,0.11083979999999999,-5.554199,10.25391,15.38086,85.07263,-5.059204,-75.91553,14.325,0.8583333999999999,-0.9833333999999999,1
147789,0.08496094,1.359375,0.1132813,10.49805,20.69092,20.56885,83.66638,-4.883423,-71.72424,13.10833,4.716667,1.058333,1
148059,0.08789063,1.040527,0.07275391,5.432129,42.3584,-5.187988,84.13879,-8.283691,-61.88599,52.0,-88.15833,60.24166,1
148359,0.01757813,0.9667969,0.01904297,0.42724609999999996,2.563477,2.990723,81.11206,-7.866211,-56.73889,22.16667,-0.2833333,1.175,1
148609,0.23730469999999998,1.104004,0.2075195,2.685547,-21.72852,0.1831055,84.47937,-3.389282,-63.89099,16.00833,1.95,0.775,1
148889,0.16699219999999998,0.8945312999999999,0.01367188,-3.4790039999999998,0.9765625,-11.65771,83.13904,-4.119873,-66.11572,56.98333,-85.45834,58.25,1
149149,-0.1918945,1.473633,0.4755859,9.277344,21.91162,53.83301,84.4519,-4.202271,-62.98462,19.04167,4.575,0.9083334,1
149389,0.07470703000000001,0.8881836,0.07763672,-5.92041,-9.521484,-6.652832,84.0564,-7.531128,-64.06677,54.51667,-87.58334,59.63334,1
149699,0.1889648,1.164063,0.2080078,5.065918,-21.11816,-22.2168,82.83691,-7.833252,-65.80811,55.625,-87.08334,58.29167,1
149979,0.13525389999999998,0.953125,0.1079102,0.6713867,18.9209,12.87842,85.64392,-5.641479,-68.68103,56.95,-86.45834,58.54167,1
150279,0.2202148,1.019531,-0.1733398,9.460449,26.67236,-4.638672,83.50159,-4.801025,-66.44531,57.325,-85.98333,60.46667,1
150619,0.09521484000000001,0.8935546999999999,0.2719727,-2.502441,0.06103516,-4.333496,83.80371,-8.355103,-58.1012,16.53333,2.066667,-0.75,1
150849,0.06591797,0.9360352,0.10644529999999999,-8.239746,-2.380371,2.258301,82.3645,-6.943359,-59.02954,18.63333,1.275,-0.45,1
151069,0.1103516,1.052246,-0.01464844,3.417969,-36.86523,-3.356934,81.68335,-7.750854,-61.72668,18.28333,5.166667,1.908333,1
151279,0.1728516,1.029785,0.11865229999999999,4.577637,-5.92041,15.93018,84.57275,-4.059448,-71.96045,58.5,-86.64167,56.80833,1
151519,0.1552734,0.9228516,0.1323242,-10.92529,-17.15088,-8.850098,83.66638,-5.811768,-74.27307,16.63333,1.125,-0.5416667,1
151789,0.21875000000000003,0.9750977,0.03369141,2.258301,-3.90625,-4.02832,82.55127,-4.833984,-76.8219,20.0,1.733333,0.2916667,1
152009,0.0625,0.8769530999999999,0.2739258,-2.563477,15.74707,16.54053,83.30933,-7.7948,-75.95398,56.96667,-88.49167,53.625,1
152259,0.09033203000000001,0.9628905999999999,0.1386719,-3.967285,27.46582,-15.07568,83.44666,-6.838989,-71.25183,17.20833,0.7000000000000001,-2.458333,1
152499,0.1494141,1.119629,0.1420898,-0.3051758,-5.981445,6.103516,80.78796,-6.520386,-67.60437,56.5,-88.3,57.50834,1
152789,0.1953125,1.026855,0.3505859,22.46094,59.81445,-10.74219,83.99597,-4.603271,-60.80383,18.58333,2.775,2.441667,1
153019,0.09570313,1.068359,0.16699219999999998,0.5493163999999999,139.6484,10.98633,85.08362,-5.817261,-29.73999,38.79167,-87.725,81.5,1
153319,-0.2070313,1.08252,-0.008789063,-5.615234,89.90479,16.96777,77.99194,-5.322876,11.61255,16.8,0.875,0.7333333,1
153619,-0.07714844,1.141113,0.030273440000000002,7.507324,84.04541,27.70996,79.11255,-3.669434,32.44812,0.9083334,-86.88333,76.24167,1
153919,-0.07958984,0.8950195,0.15917969999999998,12.57324,70.86182,29.35791,82.43042,-7.657471,56.89819,-12.275,-81.10833,67.225,1
154199,0.15917969999999998,1.157227,0.08837891,13.24463,48.27881,27.09961,84.07837,-9.777832,68.41187,18.125,1.558333,0.075,1
154449,0.2607422,0.8198242,0.056640630000000004,1.953125,23.86475,-6.103516,82.50732,-12.16736,80.69458,16.81667,0.325,1.491667,1
154749,-0.07617188,0.9155272999999999,0.18652339999999998,1.342773,41.19873,12.69531,83.58948,-12.98035,92.81799,18.41667,3.508333,0.2083333,1
155089,-0.06982422,0.7768554999999999,0.13525389999999998,8.361816,-4.943848,-3.601074,83.68286,-12.57385,97.54761,16.85833,1.433333,0.48333329999999997,1
155299,0.3066406,1.297852,0.2822266,2.868652,9.765625,-22.03369,84.52332,-11.10168,94.18579,16.39167,2.625,0.8333332999999999,1
155509,0.190918,1.183594,-0.008300781,-6.774902,-0.9155272999999999,-18.85986,84.10583,-8.920898,92.16431,-18.44167,-77.36667,46.14167,1
155749,0.13916019999999998,0.9506836,-0.0234375,-8.300781,13.91602,9.216309,83.00171,-11.19507,96.03699,15.85833,0.2083333,0.425,1
156019,0.1455078,1.050781,0.05126953,-0.8544921999999999,41.19873,-1.159668,83.40271,-10.48096,101.7169,21.825,-0.48333329999999997,3.175,1
156239,0.1552734,1.154297,0.1640625,1.708984,2.807617,-8.728026999999999,85.29785,-12.43652,108.6493,-17.35833,-74.8,35.79167,1
156489,0.07617188,0.8315429999999999,0.04638672,-1.525879,-11.90186,0.7324219,84.77051,-10.18982,108.045,19.7,1.325,0.7833333,1
157849,0.1035156,1.105469,-0.07470703000000001,-11.23047,-32.22656,6.835938,87.55554,-12.55737,105.0073,-17.28333,-75.2,41.55,1
158139,0.1435547,0.8227538999999999,0.13525389999999998,-6.164551,13.00049,25.5127,90.53833,-8.827515,97.77283,-16.11667,-78.025,46.30833,1
158409,0.15136719999999998,0.8813477,-0.011230470000000001,-8.117676,3.723145,-10.98633,87.32483,-10.39856,100.2448,22.39167,0.1333333,-0.15,1
158649,0.05810547,0.8920897999999999,0.1933594,-7.446289,40.83252,19.40918,86.57227,-15.21057,105.3259,-17.64167,-74.24167,39.35833,1
158949,0.004882813000000001,0.9257812999999999,-0.01171875,0.7324219,-2.746582,14.4043,83.45215,-13.31543,114.7852,18.75,-3.241667,2.016667,1
159260,0.3188477,1.253906,0.1967773,12.57324,-0.9765625,-1.464844,87.53906,-9.596558,109.8193,-14.35,-78.48333,38.26667,1
159559,0.1791992,0.9721679999999999,-0.08544922,10.68115,25.75684,-16.72363,86.08337,-11.23901,119.3225,-12.26667,-78.55,32.75834,1
159839,-0.20507809999999999,1.556641,0.43457029999999996,7.385254,5.981445,56.57959,86.17126,-10.67322,124.2169,18.675,3.675,0.4583333,1
160079,0.1157227,0.8847655999999999,0.041015630000000004,-16.29639,-24.6582,-6.713867,85.51208,-11.44775,116.2463,-13.35,-77.825,34.06667,1
160419,0.4526367,1.253418,0.4882813,21.11816,-15.80811,-59.63135,86.25366,-9.689941,108.6823,20.58333,3.866667,-0.5666667,1
160630,0.1713867,0.9765625,0.09130859,-7.8125,-12.146,8.361816,87.46765,-8.272705,103.667,13.05,-0.9,-1.241667,1
160839,0.1542969,0.7553711,-0.05761719,1.281738,19.34814,-16.60156,84.5343,-8.00354,103.8593,22.48333,-1.416667,1.291667,1
161049,0.6245117,0.9072266,-0.002441406,26.7334,5.67627,39.36768,87.70935,-11.49719,107.6221,16.10833,3.958333,1.275,1
161259,0.04736328,0.7568359,0.02685547,-0.6713867,5.249023,1.220703,87.52258,-12.12341,110.1215,-15.14167,-79.16666,38.80833,1
161499,0.15087889999999998,0.9257812999999999,-0.10107419999999999,1.708984,-35.09521,4.821777,86.48987,-13.59009,106.9464,17.34167,6.775,4.391667,1
161749,0.1650391,0.7187500000000001,0.07763672,-7.202148,10.74219,28.68652,90.39551,-9.673462,100.9863,-14.56667,-81.04166,45.725,1
161999,0.1210938,1.047852,-0.008789063,6.591797,-1.220703,-7.141113,86.80847,-10.00854,102.0795,18.20833,-1.316667,1.216667,1
162269,0.06640625,1.083008,0.23730469999999998,15.44189,18.9209,32.4707,88.02246,-10.41504,105.0348,17.43333,3.583333,0.8916666,1
162479,0.03076172,0.9790038999999999,0.04394531,5.7983400000000005,31.06689,-10.13184,88.46191,-14.04053,111.6705,17.125,0.6083333,-1.2,1
162699,0.02441406,1.064453,0.06542969,-6.164551,-4.699707,0.793457,83.55652,-13.48572,117.7185,20.2,3.191667,2.616667,1
162989,0.2045898,1.002441,0.144043,-3.234863,-2.319336,13.91602,88.1488,-8.426514,112.9614,-11.90833,-80.5,37.49166,1
163239,0.1323242,0.8666992,0.03417969,-10.98633,-4.577637,-8.056641,85.4187,-10.48645,114.4391,19.74167,-0.8416665999999999,0.4,1
163489,0.36425779999999996,0.7480469,0.328125,-6.774902,20.99609,34.30176,85.29785,-12.8595,119.339,-12.38333,-77.06667,32.64167,1
163789,0.07763672,0.8974609,0.04931641,-5.92041,11.90186,5.249023,84.1333,-11.61804,123.8214,-10.68333,-77.44167,30.06667,1
164079,-0.0390625,0.9003905999999999,0.3374023,6.286621,-38.51318,-45.71533,86.63269,-8.772583,120.3113,-9.683333,-80.39167,34.175,1
164369,0.152832,0.9145508,0.12451169999999999,-15.80811,-22.52197,18.06641,87.20947,-8.074951,113.1317,14.25,1.716667,-4.358333,1
164659,0.17382809999999999,1.2685549999999999,0.024902340000000002,12.45117,5.310059,13.18359,84.44092,-8.201294,110.5939,13.85,4.583333,2.5,1
164859,0.121582,0.996582,0.24072269999999998,1.708984,28.13721,6.774902,86.52832,-12.98584,114.0546,16.7,2.958333,-0.625,1
165079,0.06640625,0.8515625,0.1098633,-11.65771,4.821777,-1.6479489999999999,85.177,-11.42029,116.2354,16.31667,0.40833329999999995,-1.433333,1
165289,0.06933594,1.085938,0.01953125,0.9765625,-0.3051758,4.150391,82.49084,-12.2113,117.2406,19.95,3.166667,2.508333,1
165509,0.2587891,1.101563,0.14306639999999998,1.953125,-17.39502,13.79395,86.67114,-6.899414,111.72,-10.925,-80.68333,38.04167,1
165739,0.08789063,0.796875,0.1044922,-19.65332,-14.89258,-6.774902,84.59473,-9.316406,110.116,17.71667,1.1,-0.24166669999999998,1
165989,0.18164059999999999,0.9306641,0.23681639999999998,9.82666,-7.385254,26.79443,85.31433,-10.65674,110.8466,-12.28333,-78.85833,37.71667,1
166239,-0.05517578,0.8959961,0.20996089999999998,6.347656,21.24023,-4.089355,85.3363,-12.34863,116.4661,14.866670000000001,1.666667,-1.65,1
166509,0.1025391,1.051758,0.05517578,-0.3662109,-13.48877,-0.9765625,81.79871,-12.40356,117.6526,-12.28333,-76.63333,33.13334,1
166829,0.234375,0.9580078,0.15039059999999999,8.361816,4.821777,21.3623,86.2262,-8.865967,113.1262,15.35833,1.691667,-0.9166667,1
167119,0.1835938,1.132813,-0.001464844,3.601074,16.35742,-2.624512,83.6554,-9.459229,117.757,-10.04167,-79.31667,33.50834,1
167419,-0.04833984,0.9389647999999999,0.1928711,0.9765625,12.87842,-12.93945,85.20996,-13.17261,124.9255,15.59167,2.25,-0.8166667,1
167719,0.2006836,1.149414,0.05566406,-10.68115,-2.380371,0.06103516,83.05664,-12.26624,125.6451,-9.933333,-76.74167,29.79167,1
168019,0.20166019999999998,1.041504,0.18212889999999998,2.197266,-28.50342,6.408691,86.39099,-7.03125,119.6356,-8.858334,-80.525,34.39167,1
168310,0.1801758,1.143066,-0.002929688,-3.356934,-2.624512,-7.629395,83.84216,-8.22876,115.3345,-9.85,-79.89167,35.16667,1
168609,0.1567383,1.040527,0.1772461,12.26807,15.50293,-2.197266,86.59424,-12.73315,118.147,-11.61667,-77.85833,35.38334,1
168949,0.04833984,1.063965,-0.02148438,-8.666992,-5.310059,-1.7700200000000001,84.61121,-11.19507,121.1023,17.7,-2.216667,1.258333,1
169179,0.1103516,0.9536133,0.34960939999999996,22.88818,-9.277344,-45.34912,86.51184,-8.453979,118.559,18.90833,4.108333,-0.7416667,1
169399,0.1572266,0.9335937999999999,0.1796875,-9.338379,-10.80322,14.64844,88.13782,-7.338867,112.879,14.03333,1.216667,-1.758333,1
169609,0.1191406,1.109375,-0.1328125,1.708984,17.39502,-2.441406,85.88562,-6.981812,112.0386,-9.658334,-81.10833,38.375,1
169849,-0.05371094,1.237793,0.22119139999999998,-0.6103516,36.86523,22.27783,87.17651,-12.50793,118.3777,16.425,3.466667,-0.17500000000000002,1
170119,0.07617188,0.9208984,0.1030273,-16.05225,-4.272461,-2.990723,86.27014,-10.82703,119.718,16.34167,0.6583333,-3.066667,1
170339,0.21875000000000003,1.229004,0.01806641,-1.586914,-45.89844,-12.39014,83.27087,-11.55762,114.494,-11.98333,-77.61667,35.925,1
170589,0.2641602,1.107422,0.18994139999999998,2.075195,-14.52637,3.417969,86.06689,-6.448975,108.0945,15.00833,2.158333,0.3333333,1
170829,0.199707,0.8569336,0.02587891,3.601074,-1.464844,-10.00977,83.79272,-9.9646,109.6436,-11.84167,-79.1,38.39167,1
171099,-0.01806641,1.166016,0.3432617,19.9585,23.4375,31.49414,85.8252,-10.26672,113.1702,18.925,4.233333,0.5416667,1
171349,0.06787109,0.8862304999999999,0.1191406,-5.493164,11.53564,-9.887695,85.67139,-11.92566,121.344,-10.38333,-77.8,32.89167,1
171649,0.2841797,1.300781,0.060546880000000004,8.605957,-21.30127,-17.39502,84.19373,-11.61804,121.8054,14.13333,6.716667,-0.5916667,1
171949,0.1259766,1.008301,0.08642578000000001,-4.211426,-32.22656,7.507324,87.40723,-7.954102,111.7255,-10.94167,-80.29166,39.23333,1
172270,0.1689453,1.096191,-0.04736328,6.103516,22.76611,0.3662109,84.47937,-7.921143,108.1989,20.625,3.825,0.7416667,1
172589,0.048828130000000004,0.8793945,0.18212889999999998,-3.417969,19.16504,-6.164551,85.35828,-11.93115,114.2578,17.025,1.083333,-0.4333333,1
172899,0.08251953000000001,1.222168,0.08740234,7.93457,8.239746,-5.249023,84.06738,-9.915161,116.944,20.55,0.5166666999999999,3.633333,1
173199,0.15869139999999998,1.02832,0.22167969999999998,-16.23535,-25.6958,12.3291,88.61572,-5.009766,112.1265,17.0,2.416667,-2.375,1
174619,0.1479492,0.9086913999999999,0.11425779999999999,-22.33887,-10.25391,10.49805,86.34155,-8.761597,117.1967,13.94167,1.6,-1.541667,1
174819,0.13916019999999998,1.192383,0.0078125,-4.821777,-0.5493163999999999,-1.342773,83.84216,-8.311157,114.8511,22.55,1.566667,1.8333329999999999,1
175029,0.2617188,0.7485352,0.2802734,-0.6713867,27.09961,23.13232,85.61646,-12.64526,117.5537,17.11667,4.516667,-0.17500000000000002,1
175239,0.1103516,0.8691405999999999,0.08007813,-12.3291,10.25391,2.807617,83.62244,-11.74988,123.8708,-11.325,-77.33334,31.05,1
175479,0.17871089999999998,1.343262,0.01074219,15.25879,-2.624512,-12.26807,83.67737,-12.00806,123.9862,15.13333,5.625,0.65,1
175749,0.1376953,1.029297,0.206543,0.793457,-15.56396,-4.882813,86.05042,-7.525635,122.6129,15.48333,2.141667,-0.03333333,1
175969,0.1713867,0.9262695,-0.015136720000000001,-1.708984,-9.033203,-6.713867,84.02893,-9.942627,120.1685,-11.55833,-78.825,33.83333,1
176219,0.02978516,1.168457,0.3359375,21.85059,10.68115,47.48535,86.52832,-11.12915,122.7832,18.0,3.441667,0.9166667,1
176459,-0.01806641,0.8671875,0.159668,7.8125,15.38086,-14.89258,86.60522,-13.09021,127.1558,14.89167,1.091667,-1.525,1
176669,0.1181641,1.097656,-0.009277344,1.220703,-2.441406,-1.464844,84.33655,-12.0575,128.3752,-10.93333,-77.425,30.73333,1
176919,0.05566406,0.9375,0.2416992,5.432129,-20.93506,-30.09033,86.47888,-6.619263,127.4469,15.79167,2.25,-0.375,1
177190,0.12060549999999999,0.8417969,0.03955078,-10.49805,-9.887695,-8.789063,84.17725,-8.55835,127.5293,-9.091666,-79.80833,31.06667,1
177469,0.27832029999999996,0.652832,0.2387695,-9.277344,3.90625,31.18896,84.41895,-11.46423,129.3201,-10.44167,-77.8,30.225,1
177759,0.0390625,0.9648437999999999,0.1494141,3.845215,-25.45166,-18.49365,84.02344,-11.20056,127.8864,15.34167,1.1,-1.141667,1
178009,0.1157227,1.158203,-0.02978516,16.11328,-1.953125,-0.5493163999999999,82.64465,-10.29419,125.4089,-11.00833,-78.43333,32.69167,1
178289,0.199707,1.044434,0.1381836,2.929688,-4.455566,12.69531,87.35779,-6.465454,119.9487,-10.15,-81.46667,37.38334,1
178589,0.125,0.8867187999999999,0.028808590000000002,-16.8457,6.652832,-4.02832,85.61096,-8.267212,120.4651,17.83333,0.4583333,-0.1916667,1
178869,0.05419922,1.068359,0.1645508,-2.380371,13.73291,10.25391,84.77051,-13.08472,128.5236,-11.54167,-77.08334,32.10833,1
179139,0.1230469,0.9208984,0.03125,-8.911133,5.249023,-13.30566,83.77075,-10.98083,129.5673,16.875,0.008333334000000001,-1.058333,1
179379,0.1396484,1.121582,0.06152344,4.455566,-11.23047,-7.995605,82.35352,-10.48645,129.0839,18.46667,3.983333,2.75,1
179589,0.06005859,0.9975586,0.22509769999999998,-3.112793,-60.18066,-29.35791,85.51758,-5.542603,124.4861,15.9,2.375,0.2666667,1
179809,0.171875,0.8432617,0.06298828000000001,-24.23096,-32.34863,-4.333496,83.60596,-7.514648,110.061,-11.875,-80.71667,41.33333,1
180079,0.1933594,0.762207,0.2763672,5.737305,21.91162,11.2915,85.87463,-11.18408,111.0498,-13.4,-78.90833,41.975,1
180329,0.06982422,1.017578,0.08203125,5.67627,30.82275,-11.1084,85.52856,-10.83252,116.554,14.95833,0.65,-1.5833329999999999,1
180599,-0.13134769999999998,1.11377,0.02294922,1.037598,10.37598,7.080078,82.58972,-10.03601,122.168,24.98333,1.75,3.283333,1
180819,0.13916019999999998,1.01416,0.22558589999999998,8.605957,-24.6582,-7.263184,84.87488,-6.174316,123.0963,-8.708333,-81.59167,36.18333,1
181109,0.14697269999999998,0.7846679999999999,-0.02148438,-2.319336,-6.774902,-5.981445,83.26538,-7.789307,117.8394,-10.35,-80.73333,37.53333,1
181399,0.2045898,1.049316,0.2905273,5.981445,1.586914,53.89404,84.23218,-10.65674,120.0861,19.71667,3.125,0.7166667,1
181639,0.0,1.012207,0.0703125,-5.981445,19.65332,-6.103516,84.12231,-10.6842,128.1885,15.375,0.15833329999999998,-1.016667,1
181909,0.2900391,1.242188,0.29394529999999996,19.34814,-14.34326,-36.31592,84.35303,-9.206543,126.4307,-8.658334,-80.50833,34.69167,1
182219,0.23730469999999998,1.0698239999999999,0.1889648,-6.835938,-26.79443,9.643555,86.40198,-5.493164,120.0366,16.48333,3.1,-2.733333,1
182469,0.1723633,0.9755859,0.03808594,-1.708984,-8.056641,-8.117676,82.61169,-7.34436,116.4716,20.98333,-2.233333,2.9,1
182739,-0.03710938,1.122559,0.18261719999999998,-0.4882813,14.89258,5.432129,85.31433,-12.94739,120.0696,15.81667,2.65,0.03333333,1
183109,0.07324219,1.110352,-0.1445313,14.89258,14.16016,4.272461,82.46887,-10.57434,129.1333,-9.441667,-78.79166,32.9,1
183369,0.1953125,1.138672,0.1801758,14.16016,-27.58789,-12.69531,86.66565,-5.707397,127.3425,17.15833,2.683333,-0.4333333,1
183619,0.1357422,0.9516602,0.04296875,-15.44189,-20.1416,16.47949,86.01196,-8.283691,123.9642,13.89167,-0.45,-2.025,1
183829,-0.04541016,1.590332,0.4213867,18.37158,9.521484,50.78125,84.99023,-10.00854,122.8931,-11.741670000000001,-79.30833,37.46667,1
184069,0.06787109,0.9248046999999999,0.2592773,-6.713867,14.89258,-4.943848,84.06738,-13.13416,127.0789,16.325,1.475,-0.1166667,1
184309,0.1606445,1.099609,0.03710938,10.0708,3.173828,-6.347656,81.89758,-11.55212,131.2537,-10.5,-78.275,32.24166,1
184559,-0.35693359999999996,0.9062500000000001,0.3588867,13.24463,-35.09521,-34.24072,86.7865,-5.526123,130.6659,16.80833,2.6,-1.7083329999999999,1
184839,0.1054688,0.8251953,0.06738281,-22.15576,-15.19775,-12.51221,84.75403,-8.470459,127.1942,-9.558333,-81.05,35.975,1
185149,-0.0004882813,1.081543,0.4057617,-1.342773,-0.24414059999999999,67.62695,85.23743,-10.39307,131.2866,18.84167,3.258333,0.6083333,1
185440,0.04589844,0.9238280999999999,0.06494141,-6.225586,9.155273,-12.93945,84.08386,-9.102173,132.4402,-9.283334,-79.96667,32.79167,1
185759,0.2480469,1.227051,0.3046875,12.57324,-10.00977,-23.37646,84.72656,-8.64624,132.0996,15.275,5.291667,0.85,1
186049,0.04052734,1.033691,0.07373047,-3.112793,-35.5835,13.42773,86.35803,-6.542358,121.3879,-10.6,-81.94167,41.09167,1
186349,0.2641602,1.155762,-0.08007813,13.5498,22.52197,5.737305,84.04541,-7.097168,118.2568,-10.85,-81.75,41.10833,1
186629,-0.03808594,1.077637,0.2192383,-7.141113,10.86426,13.12256,85.12756,-11.87073,121.4209,15.91667,2.925,-0.2666667,1
186869,0.048828130000000004,0.8583984,-0.0034179690000000003,-5.493164,16.23535,9.338379,83.06213,-10.21179,125.7111,-11.46667,-79.575,36.975,1
187179,-0.2192383,0.765625,0.3847656,5.7983400000000005,-20.75195,-31.73828,85.99548,-7.042236,127.1503,16.825,2.641667,-1.3333329999999999,1
187479,0.07958984,0.8847655999999999,0.11083979999999999,-15.93018,-10.00977,0.0,86.01196,-8.140869,121.355,14.0,1.425,-1.7,1
187819,0.03955078,1.162598,0.09570313,10.13184,24.23096,12.26807,84.33655,-7.229004,123.6072,13.90833,5.658333,-1.25,1
188059,0.07177734,0.9672852,0.1303711,-3.173828,-6.774902,-10.31494,84.73206,-10.54688,126.1395,-11.53333,-80.125,37.25834,1
188299,0.05371094,1.040039,0.02197266,-1.953125,-0.24414059999999999,7.080078,82.49084,-10.27222,126.3373,18.39167,-2.458333,0.9916666999999999,1
188539,0.1499023,1.016113,0.2236328,15.93018,-26.9165,-10.98633,86.47339,-5.641479,120.1794,-9.941667,-83.19167,40.89167,1
188779,0.07324219,0.9335937999999999,0.08984375,-8.605957,5.737305,10.49805,86.4679,-8.651733,121.0913,14.04167,-0.15,-0.06666667,1
189049,0.15039059999999999,1.158203,0.00390625,-7.385254,5.554199,-5.126953,84.84192,-7.536621,120.7727,21.51667,0.24166669999999998,1.825,1
189269,0.3344727,0.7265625,0.33349609999999996,-2.929688,8.300781,37.41455,85.99548,-11.69495,122.536,18.5,3.616667,-0.375,1
189489,0.1030273,0.9086913999999999,0.06201172,-14.52637,13.42773,0.42724609999999996,84.2926,-10.53589,126.3043,16.8,1.15,-1.8333329999999999,1
189759,-0.02685547,1.061035,0.3222656,19.77539,1.037598,-40.16113,84.44641,-8.717651,123.6182,-11.34167,-81.6,38.18333,1
191139,-0.09179688,0.8315429999999999,0.2797852,17.02881,-8.056641,-34.85107,85.07813,-10.09094,138.7903,18.54167,4.091667,-0.6666667,1
191379,0.1655273,0.9194336,0.10498049999999999,-9.887695,7.141113,7.324219,85.53955,-9.206543,134.4452,16.11667,0.48333329999999997,-0.15833329999999998,1
191680,0.1044922,1.169922,-0.1025391,9.643555,55.11475,1.525879,84.97925,-7.25647,138.9825,-7.683333,-81.625,29.70833,1
191989,0.06347656,0.9458008,0.1396484,-2.319336,5.065918,-13.42773,84.36401,-10.51392,146.8542,-7.133333,-79.83334,26.15833,1
192259,0.02001953,1.007324,0.01269531,0.0,9.58252,9.155273,82.66663,-9.613037,149.4086,18.475,-0.2,0.6333333,1
192509,-0.1533203,0.7202147999999999,0.3632813,-1.403809,-18.12744,-36.86523,84.43542,-7.575073,148.1232,-5.125,-81.60833,25.80833,1
192809,0.07226563,0.8950195,0.07861328000000001,-10.68115,10.0708,2.441406,84.38599,-8.338623,149.5898,15.66667,-0.1083333,-0.5833332999999999,1
193119,0.09960938,1.212402,0.230957,2.258301,3.051758,49.49951,82.96326,-8.547363,153.501,17.5,4.541667,-0.8833333,1
193449,0.03417969,0.9794921999999999,0.1196289,-0.3051758,15.68604,-8.117676,81.52954,-9.695435,160.0983,14.31667,1.45,-1.158333,1
193690,-0.06103516,1.138672,-0.1279297,13.06152,-11.96289,3.2958979999999998,80.7605,-9.777832,162.6965,-0.8,-79.05833,18.56667,1
193929,0.2822266,1.109863,0.1762695,11.47461,-4.516602,-6.774902,83.23792,-5.059204,161.9385,16.99167,2.491667,1.425,1
194169,0.07373047,0.8237304999999999,0.02148438,-3.723145,-10.74219,-6.225586,82.69958,-7.684937,163.6688,0.5083333,-80.95,19.34167,1
194419,0.1459961,1.240723,0.078125,12.3291,49.49951,17.51709,83.71582,-6.80603,166.5802,11.79167,4.983333,-0.7583333,1
194689,0.07861328000000001,0.9741211,0.24121089999999998,-1.281738,17.63916,-10.0708,83.38074,-11.03027,173.3148,16.2,1.633333,0.35833329999999997,1
194909,0.09375000000000001,0.8867187999999999,0.03564453,-10.00977,22.82715,4.638672,82.47986,-8.404541,176.5009,18.49167,-0.2083333,0.8083332999999999,1
195119,0.015136720000000001,0.9990234,0.3110352,21.66748,10.74219,-40.2832,83.8916,-6.015015,178.8959,8.65,-82.66666,16.71667,1
195359,0.1855469,0.9570312999999999,0.1567383,4.943848,2.380371,11.65771,84.67712,-3.010254,175.9406,16.21667,0.675,-1.8,1
195609,0.1289063,1.05957,0.01757813,1.464844,9.399414,-3.2958979999999998,82.25464,-4.086914,174.9353,22.01667,0.48333329999999997,1.908333,1
195910,0.01367188,1.055176,0.1757813,0.24414059999999999,27.03857,7.751465,83.4137,-8.695679,-177.0941,8.641666,-81.68333,16.03333,1
196219,0.04248047,0.9301758,0.01904297,-0.42724609999999996,-0.4882813,7.873535,81.84265,-6.657715,-174.007,10.825,-81.35,15.10833,1
196479,0.234375,1.210938,0.2231445,3.540039,-39.73389,-23.4375,83.04016,-6.009521,-179.9011,13.18333,5.533333,-0.9333332999999999,1
196729,0.1054688,0.9609375,0.13916019999999998,-1.220703,-4.821777,17.57813,83.8092,-3.306885,169.7772,4.733333,-82.55,20.15833,1
197049,0.11279299999999999,1.053223,0.03564453,3.4790039999999998,-2.319336,-6.408691,80.83191,-3.554077,165.7672,20.55833,0.1333333,2.05,1
197339,0.04003906,1.02002,0.23339839999999998,0.06103516,31.43311,7.324219,82.80945,-8.580322,173.8586,4.125,-80.73333,18.8,1
197689,0.020996090000000002,0.9916992,-0.008789063,0.6103516,12.39014,9.460449,80.88135,-5.960083,178.006,18.35833,-0.625,0.8333332999999999,1
197909,0.2319336,1.143555,0.21728519999999998,17.15088,13.97705,-20.20264,82.58423,-5.218506,179.6045,15.31667,5.783333,0.5,1
198109,0.08349609,0.9877929999999999,0.1640625,4.272461,-19.16504,7.080078,84.28162,-1.593018,177.7863,16.775,1.625,-1.075,1
198329,0.1040039,0.8959961,0.05761719,-16.96777,-15.99121,1.89209,83.11157,-4.575806,175.4077,16.58333,0.31666669999999997,1.225,1
198529,0.2036133,1.078613,-0.1171875,11.04736,20.87402,4.333496,82.2876,-3.9935300000000002,175.2155,20.425,4.916667,1.566667,1
198739,0.02978516,0.9321288999999999,0.2304688,-4.150391,20.56885,-6.9580079999999995,82.37549,-8.426514,-176.0834,9.3,-80.56667,16.48333,1
199029,0.015136720000000001,1.199707,0.03955078,7.568359,2.075195,1.159668,80.4364,-6.410522,-171.2769,12.69167,-80.425,14.93333,1
199299,-0.1796875,0.7641602,0.3979492,0.9765625,-9.033203,-46.99707,83.76526,-1.922607,-173.584,16.61667,3.341667,-0.9083334,1
199549,0.06835938,0.8730469,0.0390625,-8.422852,-6.408691,1.220703,83.90259,-3.757324,-173.4302,13.45833,-82.61667,16.825,1
199849,-0.0859375,1.339355,0.40429689999999996,9.58252,32.77588,37.96387,84.17725,-3.565063,-170.8099,14.05833,5.016667,0.06666667,1
200309,0.07763672,0.8823242,-0.0004882813,-17.08984,-41.25977,0.24414059999999999,82.68311,-4.822998,-177.7972,19.5,0.975,-2.491667,1
200569,-0.07519531,0.6303711,0.2739258,-5.67627,-48.70605,-44.6167,82.15576,-1.73584,168.0688,5.925,-82.93333,21.25,1
200839,0.1967773,0.918457,0.1035156,-12.26807,14.64844,8.178711,82.16675,-3.988037,168.0139,5.091667,-81.91666,20.2,1
201149,0.1000977,1.062988,-0.03710938,7.080078,39.85596,0.6103516,80.55725,-3.6804200000000002,174.3201,19.51667,1.683333,1.908333,1
201389,0.09912109000000001,1.104004,0.190918,-6.347656,32.65381,-3.90625,82.32056,-7.998047,-175.578,11.575,-81.7,16.54167,1
201669,0.00390625,1.049805,0.02587891,-3.051758,-9.58252,5.859375,80.06287,-6.333618,-170.9747,20.76667,0.2333333,0.7666666999999999,1
201999,0.06542969,1.033203,0.2421875,-0.9155272999999999,-10.92529,-18.12744,81.22192,-1.137085,-173.7872,16.84167,2.55,0.9166667,1
202309,0.1157227,0.9194336,0.006347656,-5.67627,6.164551,-12.02393,80.44189,-3.57605,-174.2377,20.30833,0.008333334000000001,0.9500000000000001,1
202549,0.07128906,1.324219,0.11474609999999999,17.82227,27.83203,24.10889,82.06238,-2.93335,-170.3375,11.81667,5.308333,-0.4166667,1
202759,0.1811523,1.009277,0.2763672,-7.202148,25.14648,2.563477,82.56226,-7.509155,-168.8104,16.73333,2.45,-0.47500000000000003,1
202969,-0.007324219000000001,1.082031,-0.04443359,7.019043,1.098633,10.98633,80.01343,-5.9655759999999995,-163.4491,18.55833,-82.375,14.49167,1
203249,-0.1025391,0.7788086,0.4135742,9.277344,13.97705,-42.48047,82.47986,-2.6202389999999998,-162.9987,20.29167,2.666667,2.283333,1
203449,0.03320313,0.8984375,0.06982422,-6.835938,17.8833,7.873535,84.16626,-3.971558,-158.6261,22.975,-85.10833,16.775,1
203699,0.1235352,1.162109,-0.011230470000000001,0.9155272999999999,17.63916,-4.516602,83.06763,-2.323608,-157.2418,21.75833,4.058333,0.36666669999999996,1
203980,0.02441406,1.035156,0.171875,-1.8310549999999999,25.08545,-4.882813,83.46313,-6.860962,-151.5839,25.175,-85.6,17.30833,1
204259,0.06298828000000001,1.100098,0.1728516,-7.507324,-42.66357,-20.69092,81.49109,-6.020508,-154.2316,24.14167,-84.58334,15.925,1
204549,0.125,0.5795897999999999,0.27050779999999996,-10.0708,-32.59277,-23.92578,82.27112,-1.450195,-161.5649,18.81667,2.566667,1.116667,1
204799,0.08496094,0.9262695,0.09228516,-7.751465,29.78516,7.202148,83.05115,-3.197021,-158.7744,25.40833,-84.94167,16.29167,1
205079,-0.06445313,1.437988,0.26220699999999997,5.126953,-2.13623,37.47559,82.04041,-3.35083,-152.2266,27.7,-85.08334,16.525,1
205369,0.23681639999999998,1.01709,0.2915039,-4.394531,13.48877,-4.333496,81.35376,-6.998291,-150.672,15.6,2.416667,0.44166669999999997,1
205619,0.04833984,1.009277,0.09375000000000001,3.967285,0.9765625,8.178711,79.66187,-5.103149,-146.3214,29.90833,-84.35833,15.63333,1
205899,0.08398438,0.9106445,0.3032227,10.86426,-16.72363,-23.80371,82.50732,-1.329346,-149.3481,17.70833,2.475,1.9583329999999999,1
206229,0.09521484000000001,0.8676758,0.01855469,-3.78418,-0.9765625,-5.615234,83.29834,-4.3396,-149.3207,17.78333,0.8083332999999999,-1.066667,1
206510,0.02685547,0.9858397999999999,0.2758789,5.126953,10.62012,40.2832,83.24341,-5.372314,-144.0527,16.98333,4.0,-0.4166667,1
206869,0.052734380000000004,0.8388671999999999,0.01269531,-1.708984,10.31494,8.666992,81.05713,-5.432739,-139.1199,33.9,-86.25833,18.06667,1
208209,0.1279297,0.9003905999999999,-0.015136720000000001,-10.55908,11.59668,3.967285,80.99121,-5.608521,-137.1863,34.975,-86.76667,18.75833,1
208449,0.2265625,1.345703,0.07421875,15.56396,-2.807617,-25.26855,81.01868,-4.888916,-136.8732,11.71667,5.216667,-0.47500000000000003,1
208659,0.11669919999999999,1.025879,0.22558589999999998,-3.112793,-42.96875,-10.55908,82.2052,-0.6646729,-140.5536,15.44167,2.558333,-0.1916667,1
208879,0.09228516,0.8598633,0.1181641,-14.22119,-28.13721,5.92041,81.68335,-3.460693,-147.7222,15.625,-0.3916667,-0.2083333,1
209089,0.0390625,1.341797,0.2338867,10.80322,7.141113,33.08105,82.03491,-4.735107,-150.3424,29.80833,-86.75,17.25,1
209339,0.1152344,1.019043,0.2231445,-2.807617,25.93994,-2.075195,81.94702,-8.091431,-145.1074,16.70833,1.933333,-0.31666669999999997,1
209609,0.046875,0.9199219,0.05175781,-15.01465,14.4043,3.4790039999999998,80.26611,-6.295166,-141.839,18.01667,1.308333,-0.47500000000000003,1
209819,0.046875,0.9199219,0.05175781,-15.01465,14.4043,3.4790039999999998,80.26611,-6.295166,-141.839,17.8,6.291667,1.233333,1
210039,0.1621094,1.01123,0.1733398,14.03809,0.0,13.42773,82.24915,-2.944336,-145.1404,16.8,1.941667,0.0,1
210309,0.328125,1.073242,0.007324219000000001,3.540039,-11.90186,-10.0708,81.15051,-4.421997,-148.8318,31.54167,-86.58334,16.79167,1
210579,0.03613281,1.149414,0.328125,13.00049,15.56396,49.19434,83.71582,-5.542603,-144.5361,17.74167,3.175,0.2916667,1
210819,0.1054688,0.9023437999999999,0.08544922,-15.01465,1.953125,-10.92529,82.40845,-5.9545900000000005,-143.432,33.15833,-87.33334,17.53333,1
211129,0.14257809999999999,1.256348,0.015625,5.249023,-28.93066,-18.31055,81.13403,-5.284424,-144.9481,14.85,4.558333,1.025,1
211469,0.1889648,1.021484,0.1635742,-5.615234,-26.61133,12.57324,82.53479,-2.164307,-156.9781,16.975,1.291667,-0.7333333,1
211739,0.1572266,1.133301,-0.01074219,0.0,26.36719,-3.2958979999999998,81.26587,-4.081421,-158.6591,28.04167,-86.0,14.34167,1
212049,0.07617188,1.086426,0.1884766,-5.249023,17.08984,0.793457,83.04016,-8.745117,-151.5729,17.05833,2.575,-0.4166667,1
212279,0.07617188,0.9174804999999999,0.03173828,-9.94873,12.87842,1.220703,81.65039,-6.503906,-150.0458,16.91667,0.6333333,0.8916666,1
212499,0.03271484,0.9956054999999999,0.3193359,11.35254,20.75195,-32.77588,83.18298,-5.339355,-150.3864,30.8,-87.5,15.775,1
212749,0.1552734,0.9438477,0.1835938,0.7324219,16.54053,16.17432,83.4082,-2.905884,-150.1392,16.075,0.9833333999999999,-1.125,1
213009,0.06787109,0.8364258,0.01318359,-6.591797,-8.544922,-7.629395,81.44165,-4.630737,-149.447,19.48333,1.133333,-0.08333334,1
213229,0.1870117,1.478027,0.015625,15.56396,26.61133,15.625,81.87561,-4.026489,-148.0573,9.858334,3.733333,0.625,1
213439,0.006347656,0.9731445,0.168457,1.159668,11.1084,-11.59668,81.30981,-6.817017,-140.9106,35.25,-88.33334,17.16667,1
213689,0.01806641,1.000977,0.02587891,-0.1831055,-4.211426,7.507324,79.5575,-5.811768,-139.8505,19.71667,-1.641667,0.24166669999999998,1
213959,0.1342773,1.05957,0.2114258,6.225586,-30.82275,-22.09473,81.51306,-1.609497,-145.4919,17.70833,3.116667,0.7083332999999999,1
214269,0.07470703000000001,0.8945312999999999,0.03320313,-11.1084,-23.92578,-6.774902,80.72754,-4.87793,-151.7926,18.49167,0.6916667,0.5583332999999999,1
214549,0.3144531,0.7929687999999999,0.2827148,-2.01416,14.03809,30.76172,82.27112,-7.261963,-150.5951,30.45,-88.45,16.04167,1
214809,0.07617188,0.9765625,0.11474609999999999,4.394531,23.19336,-6.835938,81.90308,-7.377319,-145.6732,15.9,1.675,-1.15,1
215059,0.05078125,1.094238,-0.046875,4.272461,-15.13672,-6.408691,80.05737,-6.580811,-142.641,34.0,-88.03333,16.05,1
215369,0.21875000000000003,1.072754,0.1577148,3.234863,-15.07568,7.8125,81.92505,-1.7028809999999999,-151.1499,16.36667,2.241667,-0.2666667,1
215699,0.23779299999999998,1.024414,-0.002441406,6.835938,13.12256,-9.033203,80.01343,-3.284912,-151.0181,19.79167,-1.116667,1.7083329999999999,1
215979,0.01757813,1.006836,0.2460938,-3.540039,-0.3662109,11.1084,81.21643,-7.800293,-149.2932,16.23333,3.8083329999999997,-0.6083333,1
216309,0.05957031,0.8461913999999999,0.04931641,-6.652832,15.01465,8.422852,78.92578,-5.707397,-147.2498,20.125,1.35,-0.1333333,1
216619,-0.08056641,0.7573242,0.3447266,-0.4882813,-26.24512,-36.9873,80.9198,-3.262939,-149.502,16.325,3.925,0.15833329999999998,1
216859,0.1176758,0.9438477,0.15087889999999998,1.708984,1.464844,19.47021,81.82617,-3.03772,-153.3087,15.88333,1.633333,-1.5,1
217069,0.07226563,1.037598,-0.01611328,3.601074,10.43701,3.051758,80.62317,-4.070435,-152.644,31.90833,-87.51667,14.625,1
217309,0.1870117,0.7749022999999999,0.32617189999999996,-7.873535,20.69092,23.86475,82.02942,-8.267212,-149.068,16.61667,4.525,-0.5,1
217549,0.09277344,0.8823242,0.06445313,-11.2915,18.37158,5.615234,80.25513,-6.481934,-144.4263,33.55,-87.48333,15.04167,1
217789,0.08935547,1.215332,-0.04150391,8.239746,-20.26367,-3.173828,79.73328,-7.294922,-143.9978,15.275,5.725,2.583333,1
218080,0.2246094,0.9399413999999999,0.1884766,-0.06103516,11.71875,15.86914,82.61169,-3.043213,-147.9968,34.475,-87.81667,15.61667,1
218359,0.1875,1.178711,0.01611328,6.835938,12.02393,-8.850098,81.44714,-3.88916,-145.871,35.35,-87.80833,15.34167,1
218649,0.1694336,0.7973633,0.2402344,4.699707,19.34814,33.56934,83.92456,-6.646729,-140.7568,18.04167,3.575,-0.5333333,1
218899,0.07421875,0.953125,0.05810547,-16.96777,-45.22705,-18.12744,82.90283,-5.366821,-148.3209,31.86667,-87.46667,14.45,1
219169,0.31054689999999996,1.209473,0.1171875,-2.746582,-16.6626,-12.93945,81.50757,-4.96582,-160.9332,26.50833,-86.24167,12.38333,1
219479,0.1210938,1.047852,0.1420898,5.7983400000000005,-16.29639,-0.3662109,81.35376,-2.005005,-163.0646,15.875,1.95,0.5166666999999999,1
219709,0.18945309999999999,0.8276367,0.08740234,-0.793457,6.652832,-2.01416,79.96948,-5.52063,-165.163,24.29167,-85.06667,10.95,1
219979,0.1538086,0.6899413999999999,0.27050779999999996,4.455566,47.60742,32.04346,84.06738,-7.959595,-155.9619,27.25833,-88.06667,14.11667,1
220299,0.03271484,0.9506836,0.005371094000000001,-7.751465,15.625,-10.19287,83.30933,-5.707397,-147.019,33.61666,-87.93333,15.33333,1
220599,0.14257809999999999,1.04834,0.17431639999999998,5.065918,-4.516602,-11.23047,82.62268,-4.394531,-148.4967,14.26667,5.75,-1.041667,1
220969,0.15820309999999999,0.8920897999999999,0.05517578,-12.63428,-22.3999,4.150391,81.71631000000001,-4.839478,-158.2526,28.35,-86.21667,12.49167,1
221209,0.1171875,1.10498,-0.08007813,9.70459,17.82227,4.02832,81.51306,-4.460449,-158.6865,18.86667,4.7,1.8333329999999999,1
221469,0.08837891,0.824707,0.2910156,-4.455566,30.88379,25.20752,83.17749,-8.234253,-154.1437,17.75,2.583333,0.008333334000000001,1
221689,0.09326172,0.9316405999999999,0.0859375,-7.507324,5.126953,-11.41357,82.69409,-7.289429,-151.4081,15.30833,0.5333333,-1.691667,1
221899,0.2158203,1.367676,0.1333008,8.361816,-5.493164,-21.72852,80.69458,-7.196045,-150.8752,30.73333,-86.35833,12.98333,1
222150,0.1728516,0.9272461,0.24121089999999998,-1.953125,-4.821777,-7.568359,81.65039,-3.010254,-152.6221,15.60833,2.4,1.6,1
222389,0.1518555,0.8686522999999999,0.001464844,-6.9580079999999995,-12.69531,-9.094238,81.12305,-5.894165,-151.7432,30.66667,-86.56667,13.54167,1
222639,0.1176758,1.222656,0.09326172,10.25391,27.28271,13.24463,82.32056,-5.482178,-151.2598,12.78333,5.266667,-0.4,1
222909,0.08935547,1.002441,0.137207,-2.502441,22.58301,-9.338379,83.18298,-7.745361,-145.3931,32.95,-88.05833,15.83333,1
223209,0.14697269999999998,1.179688,0.03173828,8.422852,-11.47461,-12.75635,81.41968,-6.877441,-144.1901,14.4,5.008333,0.875,1
223520,0.17871089999999998,0.9638671999999999,0.16259769999999998,3.78418,-5.249023,10.74219,83.97949,-2.911377,-149.079,33.98333,-87.56667,15.84167,1
224929,0.203125,0.9565429999999999,0.1420898,4.699707,14.52637,21.30127,83.0127,-4.597778,-156.4673,28.65833,-86.55833,13.425,1
225229,0.1523438,1.123047,-0.08007813,-2.624512,16.60156,-7.93457,81.94702,-4.822998,-154.0613,30.21667,-86.19167,13.475,1
225489,0.2324219,0.6640625,0.2719727,-1.281738,13.79395,14.89258,82.22168,-8.080444,-149.9854,15.95,3.908333,-0.975,1
225739,0.08544922,0.9179687999999999,0.08203125,-7.202148,3.4790039999999998,-1.403809,80.66711,-6.712646,-147.8705,31.425,-85.61667,13.075,1
226049,-0.05859375,0.984375,0.2460938,12.02393,14.5874,-20.69092,81.84265,-5.202026,-147.1674,15.91667,4.7,-0.325,1
226349,0.08984375,0.9624022999999999,0.08837891,-7.019043,-21.11816,12.81738,81.77124,-4.471436,-149.8096,31.69167,-86.075,13.31667,1
226699,0.2509766,1.094727,-0.1333008,17.63916,38.94043,3.662109,81.04614,-4.0979,-149.4086,19.00833,6.266667,0.975,1
226919,-0.10888669999999999,1.075684,0.1953125,3.90625,4.760742,10.31494,82.07336,-8.690186,-142.9871,16.475,3.575,-0.75,1
227109,0.1030273,0.9150391,0.07958984,-6.896973,-12.20703,-16.23535,81.1615,-6.306152,-146.1841,14.51667,0.35000000000000003,-0.7666666999999999,1
227319,0.125,1.167969,0.06542969,-4.333496,-13.97705,3.112793,79.98047,-7.014771,-146.9476,23.30833,3.058333,1.716667,1
227530,0.18994139999999998,0.9594727,0.2280273,2.563477,-26.79443,1.037598,81.67786,-2.351074,-152.6495,31.14167,-85.15,12.70833,1
227769,0.1074219,0.8867187999999999,0.06542969,-13.91602,-19.22607,2.197266,81.0022,-5.108643,-156.2201,15.51667,0.44166669999999997,0.31666669999999997,1
228019,0.1357422,1.064453,-0.006835938000000001,5.615234,16.6626,-2.929688,80.16724,-4.152832,-157.7087,25.025,5.241667,2.091667,1
228239,0.09570313,0.9038086,0.2265625,-5.493164,-5.493164,-11.71875,81.80969,-8.261719,-153.1824,25.19167,-84.15833,11.08333,1
228519,0.09375000000000001,0.8071288999999999,0.07714844,-2.197266,1.7700200000000001,0.6713867,81.61743,-6.113892,-155.05,18.28333,0.6166667,-0.675,1
228760,0.03759766,0.9208984,0.3076172,6.103516,-9.82666,-22.27783,81.78772,-4.839478,-155.6213,22.78333,-84.11667,9.708333,1
229039,0.17382809999999999,0.9414062999999999,0.08349609,-1.098633,14.4043,7.263184,82.81494,-5.300903,-156.5936,19.44167,-84.69167,9.833333,1
229329,0.1733398,0.9804687999999999,0.001953125,10.0708,-4.943848,0.1831055,81.87561,-4.63623,-153.9899,20.80833,-2.1,0.7000000000000001,1
229569,0.2006836,0.6938477,0.3198242,-11.77979,23.25439,21.91162,83.18848,-7.965088,-153.5339,16.04167,-83.7,14.79167,1
229859,0.1181641,0.9013671999999999,-0.01025391,-13.48877,14.09912,-1.037598,80.08484,-6.190796,-147.5079,20.38333,-81.95,16.16667,1
230149,0.1455078,1.29834,-0.03955078,9.94873,-27.771,-9.277344,79.19495,-6.240234,-148.0353,15.675,4.683333,1.166667,1
230399,0.140625,0.9277344,0.15039059999999999,1.159668,4.455566,20.20264,80.71106,-2.37854,-152.6495,15.45,1.141667,-0.8250000000000001,1
230679,0.10693359999999999,1.185059,0.0,4.943848,4.089355,0.4882813,79.40369,-3.202515,-153.3307,23.35833,4.55,1.9000000000000001,1
231039,0.10498049999999999,0.9550780999999999,0.10888669999999999,-5.310059,22.46094,-11.53564,81.21643,-4.844971,-144.5197,27.81667,-82.49167,18.325,1
231319,0.07373047,1.234863,0.07910156,-0.06103516,6.286621,0.06103516,79.12903,-4.103394,-141.2622,22.14167,1.383333,1.283333,1
231559,-0.09912109000000001,0.6738280999999999,0.38037109999999996,0.0,-16.54053,-36.74316,80.92529,-1.005249,-143.0145,17.425,3.166667,-0.1333333,1
231769,0.0859375,0.8916016,0.09277344,-18.24951,-9.399414,3.112793,80.86487,-1.939087,-148.4692,26.0,-82.0,17.76667,1
232009,0.1850586,1.068848,-0.07617188,12.69531,12.69531,1.037598,79.68384,-0.7525634999999999,-149.491,19.975,7.333333,1.791667,1
232259,-0.01171875,0.9960937999999999,0.25,22.46094,25.26855,2.380371,82.16125,-5.042725,-144.2175,16.80833,2.725,1.591667,1
232479,0.020996090000000002,0.8945312999999999,0.07666016,-15.80811,-12.63428,7.69043,80.7605,-3.323364,-141.7456,18.63333,1.3,-0.9083334,1
232780,0.008300781,0.703125,0.3110352,-8.239746,-30.39551,-22.46094,81.06812,-1.807251,-146.4423,31.775,-84.15,20.79167,1
233089,0.1386719,0.9125977,0.09375000000000001,-15.38086,-13.30566,3.4790039999999998,80.1178,-2.768555,-154.3359,15.40833,0.9500000000000001,-0.6916667,1
233389,0.1201172,1.195313,0.06298828000000001,14.28223,40.83252,8.666992,80.56824,-1.422729,-150.8807,33.55833,-85.28333,18.34167,1
233689,0.1479492,0.9980469,0.12207029999999999,-7.629395,-11.35254,-11.16943,81.70532,-4.910889,-147.442,33.06667,-86.14167,17.53333,1
233969,0.03710938,0.9975586,0.05029297,-3.417969,3.2958979999999998,-1.159668,79.29382,-3.724365,-147.2827,19.45,0.03333333,0.6333333,1
234199,0.05761719,0.9575195,0.2744141,2.929688,-14.4043,-16.90674,80.63965,-0.4888916,-147.5079,36.525,-85.21667,15.2,1
234499,0.07128906,0.9057617,0.04248047,-5.126953,-11.53564,-8.728026999999999,80.39246,-3.35083,-149.7217,18.575,0.3833333,0.6833332999999999,1
234819,0.1230469,0.980957,0.31689449999999997,6.530762,23.4375,44.92188,82.31506,-5.289917,-145.2887,18.09167,3.766667,0.3916667,1
235119,0.05761719,0.9316405999999999,0.09765625,-13.18359,11.77979,-7.568359,80.8374,-4.784546,-139.2957,15.51667,0.9333332999999999,-1.575,1
235489,0.1035156,0.7792969,0.36425779999999996,-1.037598,-29.47998,-34.79004,81.2439,-2.026978,-148.8977,35.15,-85.63333,13.5,1
235749,0.11621089999999999,0.9633788999999999,0.1479492,-1.953125,5.310059,21.85059,82.13379,-2.37854,-151.7267,15.63333,1.191667,-1.933333,1
235999,0.15820309999999999,1.098145,-0.01855469,6.408691,28.56445,-7.568359,79.79919,-2.828979,-150.3369,34.56667,-85.2,12.15,1
236239,-0.03808594,1.066895,0.20605469999999998,2.929688,33.87451,10.31494,81.01868,-6.196289,-143.1793,16.6,4.741667,0.1166667,1
236479,0.04345703,0.9926758,0.1298828,-2.624512,13.12256,-6.408691,80.29907,-4.866943,-139.2352,15.11667,0.9833333999999999,-1.083333,1
236699,0.07910156,1.224609,0.08251953000000001,7.873535,-23.07129,-12.39014,79.3927,-5.482178,-138.4387,38.45,-86.34167,14.125,1
236949,0.11621089999999999,0.9873046999999999,0.2080078,0.06103516,-29.78516,-2.990723,81.38672,-1.356812,-142.63,15.54167,2.925,-0.5583332999999999,1
237220,0.1450195,0.8867187999999999,0.03857422,-1.953125,-2.197266,-7.507324,80.52979,-4.553833,-146.1621,35.24166,-86.45834,12.741670000000001,1
237499,0.2827148,0.8188477,0.2880859,-0.12207029999999999,43.09082,23.80371,83.0127,-8.294678,-139.5538,35.71667,-89.33334,16.35833,1
237789,0.04736328,0.984375,0.1176758,-4.516602,27.83203,-10.0708,83.74878,-6.317139,-133.1708,15.31667,1.908333,-2.175,1
238039,-0.08886719,1.015625,-0.1103516,-0.4882813,-63.23242,-17.7002,80.38147,-5.125122,-142.5806,16.84167,4.083333,0.40833329999999995,1
238339,0.2685547,0.9584961,0.1923828,8.666992,3.417969,26.12305,83.72131,-2.554321,-153.1824,15.75,2.416667,-1.125,1
238639,0.1533203,0.9907227,-0.02929688,-5.126953,30.33447,-10.37598,82.30957,-6.80603,-151.7157,31.03333,-87.19167,12.55,1
238919,0.1928711,0.8032227,0.328125,3.173828,40.83252,21.97266,82.39746,-8.986816,-143.4265,32.99166,-88.16666,14.35,1
239219,0.09423828000000001,0.9267578,0.05712891,2.868652,53.77197,-17.63916,81.72729,-6.328125,-132.8082,15.8,0.275,-0.6333333,1
239469,-0.02539063,1.144531,-0.001953125,12.51221,-24.78027,-7.263184,81.11206,-4.844971,-126.601,17.6,6.325,1.058333,1
239739,0.20996089999999998,0.9755859,0.1298828,5.7983400000000005,14.46533,19.34814,84.00146,-2.790527,-130.8142,15.59167,0.85,-0.9583332999999999,1
240109,0.1479492,1.274902,-0.01074219,3.540039,37.90283,12.51221,82.83691,-2.911377,-126.2054,45.33333,-89.15833,21.10833,1
240339,0.03076172,1.135254,0.1835938,-4.150391,-20.08057,-10.19287,83.21045,-7.630005,-125.0629,17.06667,2.283333,0.008333334000000001,1
240619,0.06298828000000001,0.9301758,0.08886719,-12.3291,13.42773,1.6479489999999999,82.6062,-5.245972,-126.3647,15.91667,0.3916667,-0.05833333,1
241949,0.1020508,0.8574219,0.09521484000000001,-16.17432,10.00977,-1.159668,81.0791,-7.141113,-123.7445,15.15833,1.025,-0.9666665999999999,1
242139,0.022460940000000002,1.000488,0.3051758,12.39014,4.02832,-37.96387,80.90332,-6.015015,-122.6569,17.25833,3.641667,0.3916667,1
242419,0.1176758,1.021973,0.1674805,1.586914,-14.89258,15.74707,82.55676,-4.372559,-125.2936,16.78333,1.391667,-1.325,1
242669,0.20214839999999998,1.107422,-0.07373047,2.929688,8.544922,-4.760742,80.82642,-5.421753,-127.2876,42.96667,-88.64167,19.53333,1
242949,0.01953125,0.7490234,0.296875,-13.12256,13.00049,-8.117676,82.09534,-9.168091,-117.9932,17.20833,2.141667,0.075,1
243250,0.1708984,1.183594,0.03613281,5.004883,-3.356934,2.807617,81.22192,-8.640747,-116.3287,43.71667,-91.06667,24.34167,1
243559,0.1523438,0.9726562999999999,0.1967773,-0.3662109,-6.347656,17.33398,84.58374,-3.394775,-119.8938,46.19167,-90.49167,25.25833,1
243819,0.1118164,0.8764647999999999,0.0625,-14.16016,-26.36719,-10.43701,82.4469,-6.04248,-121.6901,20.0,0.3416667,-0.17500000000000002,1
244059,0.1303711,0.9326171999999999,0.27001949999999997,0.12207029999999999,22.46094,43.21289,83.6554,-6.531372,-120.30030000000001,44.05833,-90.975,24.575,1
244369,0.03808594,0.953125,0.08544922,-12.3291,2.563477,-0.6713867,83.07312,-7.108154,-113.4833,15.75,0.9416667,-1.375,1
244670,0.2529297,1.100586,0.27783199999999997,1.8310549999999999,-39.18457,-28.32031,82.38647,-6.229248,-122.9535,43.66667,-89.225,21.36667,1
244979,0.1376953,1.014648,0.09472656,-4.150391,22.46094,17.39502,83.10059,-5.202026,-125.744,42.875,-89.03333,20.475,1
245249,0.15478519999999998,1.086426,-0.004394531,7.019043,21.97266,-4.943848,80.73853,-5.07019,-122.2394,21.425,-0.775,1.766667,1
245529,0.16650389999999998,1.051758,0.23339839999999998,1.342773,40.77148,4.02832,82.50732,-10.07996,-113.3569,15.78333,3.091667,0.47500000000000003,1
245729,-0.004394531,0.9443359,0.09521484000000001,-10.25391,29.41895,-2.197266,81.11206,-7.091675,-105.683,15.88333,-0.4166667,0.7833333,1
245919,0.2875977,1.333496,0.2338867,9.82666,-5.004883,-19.89746,80.90881,-6.525879,-104.2163,9.741667,4.916667,1.258333,1
246129,0.1293945,1.048828,0.21289059999999999,12.20703,-23.49854,-2.075195,83.73779,-2.70813,-108.2977,17.26667,2.433333,0.075,1
246339,0.0859375,0.8632812999999999,0.04052734,-8.728026999999999,-27.40479,-6.225586,83.85864,-4.438477,-113.1207,14.76667,0.1,-0.6416666999999999,1
246549,0.20166019999999998,0.9916992,0.2338867,3.356934,-0.4882813,55.41992,84.11682,-6.174316,-113.5327,41.28333,-90.24167,27.63333,1
246799,-0.01464844,1.016113,0.14697269999999998,2.868652,0.5493163999999999,-20.38574,83.88611,-7.124634,-109.9896,16.09167,1.391667,-1.608333,1
247079,0.0,0.9360352,0.04296875,-6.896973,2.380371,11.53564,81.35376,-6.185303,-108.5614,18.06667,-0.47500000000000003,0.8,1
247289,0.05810547,1.049316,0.2265625,0.0,-18.73779,-27.03857,82.9303,-2.889404,-113.0658,44.29167,-89.15833,29.5,1
247529,0.215332,1.047363,0.17041019999999998,6.04248,11.16943,13.00049,83.25439,-2.70813,-113.5657,16.63333,1.666667,-0.7166667,1
247749,0.2568359,1.025879,0.017089840000000002,2.990723,-5.310059,-8.544922,80.68909,-4.350586,-115.2301,20.9,-0.6000000000000001,1.908333,1
247989,0.09033203000000001,1.018066,0.22851559999999999,6.469727,40.22217,16.17432,82.82043,-8.624268,-108.2703,17.25833,3.283333,0.2083333,1
248309,-0.08984375,0.7944336,0.03955078,-1.89209,7.263184,10.80322,80.89233,-6.465454,-99.8877,47.6,-91.29166,34.85833,1
248589,-0.024902340000000002,0.8681641,0.2910156,-1.953125,-56.21338,-28.19824,83.35876,-2.785034,-105.0842,18.475,3.425,1.066667,1
248909,0.1079102,0.8603516,0.07470703000000001,-11.96289,-26.48926,-3.540039,83.36975,-4.21875,-116.6418,47.34167,-88.95,28.14167,1
249219,0.024902340000000002,1.028809,0.35595699999999997,12.146,1.8310549999999999,45.41016,84.66064,-5.800781,-114.3677,18.525,3.658333,1.116667,1
249549,0.05126953,0.9628905999999999,0.09082031,-12.39014,5.004883,-6.225586,84.62219,-7.091675,-110.4565,15.53333,0.8250000000000001,-0.2,1
249860,0.30908199999999997,1.22168,-0.02294922,-4.577637,-47.48535,-22.03369,83.32581,-6.860962,-117.9877,13.38333,6.325,-1.941667,1
250090,0.1606445,0.9848633,0.10839839999999999,12.93945,29.54102,25.26855,84.2157,-4.037476,-119.2731,47.54167,-88.75,25.56667,1
250339,0.16601559999999999,0.9062500000000001,0.06884766,-10.49805,12.75635,-2.624512,82.771,-6.300659,-115.0323,18.175,0.5833332999999999,-0.30000000000000004,1
250579,0.2524414,1.041016,-0.1137695,12.26807,45.41016,2.502441,82.89734,-5.795288,-109.8358,19.88333,7.483333,-0.25,1
250789,0.05859375,1.041504,0.1210938,0.0,-2.075195,-17.76123,82.87537,-8.085938,-98.27271,48.39167,-91.025,34.55,1
251039,0.03613281,0.9785155999999999,0.04150391,-6.408691,-10.00977,-4.089355,80.56274,-5.344849,-99.31091,19.4,0.8,-0.275,1
251309,0.2460938,1.160645,0.3232422,4.882813,-0.5493163999999999,-17.76123,81.38672,-3.817749,-102.7551,14.26667,5.066667,1.266667,1
251529,0.1694336,0.9506836,0.1176758,-5.67627,-23.01025,17.39502,82.82043,-4.103394,-110.2478,14.69167,0.625,-1.541667,1
251799,0.08935547,1.404297,0.1293945,15.50293,29.60205,15.19775,83.07312,-4.268188,-110.3302,49.64167,-88.58334,31.86667,1
252099,0.07617188,0.9638671999999999,0.23291019999999998,-3.662109,26.24512,-6.347656,83.84216,-7.926636,-104.6832,18.88333,2.025,-1.841667,1
252349,0.12402339999999999,1.070313,0.06494141,-11.53564,-57.06787,-10.13184,80.96924,-5.839233,-112.0715,20.9,1.25,1.758333,1
252619,0.1777344,1.149414,0.2348633,9.521484,-4.333496,12.69531,83.64441,-1.94458,-116.6528,50.90833,-86.04166,28.29167,1
252889,0.03955078,0.7246094,0.07373047,-14.28223,13.85498,4.516602,82.97424,-5.987549,-115.0488,19.66667,-0.525,0.9583332999999999,1
253139,0.07324219,1.063965,0.4165039,9.82666,36.37695,60.30273,83.89709,-8.574829,-105.3754,50.69167,-89.74167,33.875,1
253439,0.007324219000000001,0.7705078,0.09863281,-9.82666,3.78418,2.990723,81.67786,-7.514648,-96.52588,53.49166,-88.10833,35.2,1
