Timestamp,AccX,AccY,AccZ,GyroX,GyroY,GyroZ,AngX,AngY,AngZ,MagX,MagY,MagZ,Tag
15839,0.0234375,0.9394530999999999,-0.33349609999999996,-0.3662109,-0.6103516,-0.1831055,111.9342,2.389526,58.94165,14.26667,-26.91667,9.791667,1
16099,0.03417969,0.9423828,-0.3232422,-0.6103516,-0.42724609999999996,-0.793457,111.8573,2.323608,58.85925,15.98333,-5.733333,0.008333334000000001,1
16359,0.026367190000000002,0.9355469,-0.3320313,-0.793457,-0.06103516,-0.5493163999999999,111.7529,2.25769,58.96362,16.14167,-5.575,-0.008333334000000001,1
16629,0.02832031,0.9458008,-0.3320313,0.3051758,-0.793457,-1.037598,111.709,2.252197,58.95813,16.16667,-5.675,-0.04166667,1
16849,0.02978516,0.9433594,-0.32470699999999997,-0.1831055,-0.3051758,-0.9765625,111.6211,2.2796629999999998,59.01306,16.03333,-5.65,0.08333334,1
17159,0.02832031,0.9423828,-0.3295898,0.6713867,-0.4882813,-0.7324219,111.7529,2.268677,59.05151,14.36667,-26.95833,9.875,1
17459,0.02978516,0.9453125,-0.33349609999999996,0.24414059999999999,-0.3051758,-0.9155272999999999,111.8518,2.230225,59.08997,16.13333,-5.675,-0.025,1
17789,0.02832031,0.9472655999999999,-0.3310547,-0.06103516,-0.3662109,-0.793457,111.8298,2.252197,59.11743,16.075,-5.708333,-0.075,1
18049,0.03222656,0.9428711,-0.32568359999999996,-0.12207029999999999,-0.42724609999999996,-0.6713867,111.5332,2.158813,59.05151,14.275,-27.025,9.883333,1
18329,0.02734375,0.9418945,-0.3242188,0.4882813,-0.42724609999999996,-0.8544921999999999,111.4014,2.098389,59.02954,16.125,-5.558333,0.05,1
18589,0.02685547,0.9443359,-0.3222656,-0.42724609999999996,-0.6103516,-0.793457,111.2036,2.043457,58.94714,16.025,-5.491667,0.08333334,1
18889,0.02832031,0.9438477,-0.33300779999999996,0.06103516,-0.6103516,-1.220703,111.1212,2.026978,58.89221,16.125,-5.491667,0.0,1
19219,0.02929688,0.9423828,-0.3320313,0.6713867,-0.3662109,-0.6103516,111.2091,2.021484,58.91968,16.15833,-5.6,0.06666667,1
19529,0.02929688,0.9428711,-0.3349609,1.037598,-0.3662109,-1.037598,111.4893,1.994019,59.01855,16.075,-5.691667,0.04166667,1
19769,0.03222656,0.9418945,-0.33349609999999996,-0.42724609999999996,-0.3662109,-0.8544921999999999,111.5497,2.021484,59.02405,14.14167,-27.0,9.95,1
19999,0.03173828,0.9448242,-0.32568359999999996,-0.7324219,-0.06103516,-0.7324219,111.4453,1.994019,59.06799,16.1,-5.633333,0.09166667,1
20249,0.02929688,0.9423828,-0.3227539,0.12207029999999999,-0.8544921999999999,-0.8544921999999999,111.4673,2.005005,59.05701,14.09167,-27.20833,9.808333,1
20479,0.03369141,0.9458008,-0.3349609,0.4882813,-0.1831055,-0.9765625,111.5332,1.999512,59.10095,16.08333,-5.691667,0.03333333,1
20769,0.02978516,0.9438477,-0.3344727,-0.42724609999999996,-0.8544921999999999,-0.3662109,111.5442,1.9885249999999999,59.07349,16.05,-5.591667,0.008333334000000001,1
20989,0.02832031,0.9433594,-0.331543,-0.24414059999999999,-0.24414059999999999,-1.098633,111.4728,2.005005,59.16687,14.025,-27.05833,9.875,1
21249,0.03173828,0.9477538999999999,-0.32617189999999996,-0.12207029999999999,-1.220703,-0.6103516,111.4178,2.010498,59.16138,16.18333,-5.5,0.008333334000000001,1
21469,0.02978516,0.9370117,-0.31835939999999996,-0.1831055,-0.12207029999999999,-1.281738,111.4069,1.983032,59.23279,14.08333,-27.28333,9.95,1
21739,0.03320313,0.9472655999999999,-0.328125,-0.06103516,-1.220703,-0.793457,111.4398,2.021484,59.18884,16.04167,-5.508333,0.008333334000000001,1
22019,0.02685547,0.9467772999999999,-0.3286133,-0.12207029999999999,-0.5493163999999999,-0.7324219,111.3684,2.06543,59.24377,16.1,-5.641667,0.03333333,1
22279,0.02978516,0.9409179999999999,-0.3276367,-0.3662109,-0.24414059999999999,-1.098633,111.3794,2.037964,59.24377,14.075,-27.325,9.858334,1
22559,0.02978516,0.9448242,-0.3266602,0.0,-0.5493163999999999,-0.9155272999999999,111.3904,2.059937,59.30969,16.1,-5.55,0.025,1
22809,0.02978516,0.9443359,-0.32617189999999996,0.7324219,-0.42724609999999996,-0.9765625,111.4069,2.06543,59.28772,16.09167,-5.641667,0.08333334,1
23119,0.02832031,0.9462891,-0.3374023,-0.6103516,-0.6713867,-0.9155272999999999,111.6046,2.087402,59.34814,16.21667,-5.583333,-0.025,1
23459,0.02929688,0.9458008,-0.3310547,0.3051758,-0.4882813,-0.6103516,111.5002,2.087402,59.30969,16.11667,-5.458333,0.0,1
23769,0.03222656,0.9506836,-0.3349609,-0.12207029999999999,0.0,-0.5493163999999999,111.5277,1.983032,59.33167,16.1,-5.6,0.04166667,1
23999,0.03417969,0.9404296999999999,-0.3276367,0.4882813,-0.3662109,-1.037598,111.5662,1.966553,59.45801,14.025,-27.275,9.825,1
24239,0.03857422,0.9487304999999999,-0.33398439999999996,1.220703,0.5493163999999999,-0.7324219,111.7365,1.94458,59.51843,16.1,-5.716667,0.08333334,1
24479,0.03125,0.9448242,-0.3310547,0.7324219,-0.4882813,-0.9155272999999999,111.8848,1.8731689999999999,59.61182,13.84167,-27.05,10.26667,1
24729,0.03417969,0.9394530999999999,-0.3354492,0.6103516,-0.7324219,-0.9765625,111.9836,1.8731689999999999,59.66675,15.98333,-5.775,-0.03333333,1
25009,0.03662109,0.9428711,-0.3286133,-0.1831055,-0.5493163999999999,-0.7324219,111.7969,1.939087,59.59534,13.89167,-27.225,10.18333,1
25299,0.03173828,0.9428711,-0.3364258,0.24414059999999999,-0.8544921999999999,-0.7324219,111.7419,1.917114,59.69421,16.075,-5.625,0.05,1
25609,0.04003906,0.9418945,-0.3291016,0.4882813,-0.06103516,-1.220703,111.7694,1.911621,59.6228,13.91667,-27.08333,9.991667,1
25909,0.03662109,0.9423828,-0.32568359999999996,-0.6103516,-1.586914,-0.7324219,111.72,1.928101,59.63379,16.11667,-5.608333,0.008333334000000001,1
26259,0.03320313,0.9409179999999999,-0.3291016,0.0,-0.9155272999999999,-1.8310549999999999,111.6101,2.015991,59.61731,16.09167,-5.533333,0.05,1
26529,0.02539063,0.9423828,-0.33300779999999996,0.3662109,-0.4882813,-0.793457,111.7639,2.15332,59.7876,16.08333,-5.633333,0.1416667,1
26859,0.03222656,0.9414062999999999,-0.3349609,3.173828,-3.540039,1.159668,111.9067,1.862183,59.79309,16.08333,-5.483333,-0.25,1
27119,0.04199219,0.9316405999999999,-0.3461914,1.7700200000000001,0.24414059999999999,-0.3051758,111.7804,1.669922,59.58435,13.65833,-27.35833,10.08333,1
27409,0.04052734,0.9448242,-0.33251949999999997,5.92041,0.9155272999999999,-1.586914,112.2034,1.697388,59.77661,16.45,-6.391667,-1.283333,1
27679,0.04931641,0.9580078,-0.3920898,-10.86426,-2.746582,-2.319336,112.1704,1.757813,59.80957,16.29167,-5.516667,-0.1333333,1
27959,0.04248047,0.9433594,-0.31835939999999996,-0.4882813,0.12207029999999999,-1.464844,111.4233,1.8402100000000001,59.82056,16.03333,-5.458333,-0.15,1
28289,0.03808594,0.9458008,-0.3203125,0.12207029999999999,-0.6103516,-1.403809,111.1926,1.834717,59.95239,16.175,-5.425,0.08333334,1
28589,0.04150391,0.9555663999999999,-0.3222656,0.8544921999999999,-0.3662109,-0.9765625,111.3354,1.917114,59.996340000000004,16.09167,-5.466667,-0.03333333,1
28839,0.03222656,0.9477538999999999,-0.3193359,-0.3662109,-1.098633,-1.037598,111.297,1.983032,60.00732,16.15,-5.55,-0.04166667,1
29039,0.02441406,0.9482421999999999,-0.3164063,0.12207029999999999,-1.403809,-0.6713867,111.1487,1.9885249999999999,60.0238,13.741670000000001,-27.325,9.741667,1
29289,0.030273440000000002,0.9458008,-0.3212891,0.3662109,0.06103516,-1.403809,111.1267,2.037964,60.07324,16.15833,-5.5,0.06666667,1
29519,0.02587891,0.949707,-0.3291016,-0.06103516,-1.098633,-0.42724609999999996,111.1981,2.043457,60.150150000000004,13.90833,-27.34167,9.583333,1
29769,0.03271484,0.9428711,-0.3139648,0.9155272999999999,0.12207029999999999,-0.9765625,111.1432,2.026978,60.13916,16.18333,-5.6,0.17500000000000002,1
30059,0.03515625,0.9394530999999999,-0.3305664,4.882813,0.1831055,-2.258301,112.0056,2.092896,60.5072,14.05,-26.875,10.36667,1
30319,0.02929688,0.9409179999999999,-0.32470699999999997,-0.06103516,-0.5493163999999999,-0.6103516,112.1484,2.021484,60.44678,13.73333,-26.775,10.50833,1
30629,0.03857422,0.9404296999999999,-0.3388672,-0.8544921999999999,-2.13623,-0.42724609999999996,112.1649,2.026978,60.29846,16.0,-5.716667,-0.2583333,1
30879,0.02832031,0.9399413999999999,-0.3212891,0.0,-1.281738,-0.7324219,111.8188,2.037964,60.19958,16.175,-5.558333,0.03333333,1
31139,0.03125,0.9414062999999999,-0.3344727,0.1831055,-0.9765625,-0.7324219,111.9177,2.010498,60.29297,13.81667,-27.01667,10.25,1
31439,0.03076172,0.9409179999999999,-0.3344727,-0.3051758,-0.12207029999999999,-0.793457,111.7969,1.994019,60.32593,16.09167,-5.666667,-0.1166667,1
31679,0.03466797,0.9492187999999999,-0.3212891,-1.708984,-0.9765625,-0.6713867,111.3409,1.8951419999999999,60.40833,13.675,-27.475,9.916667,1
32949,0.022460940000000002,0.9448242,-0.3149414,-0.06103516,-0.3662109,-0.9155272999999999,110.6104,1.994019,60.22705,16.23333,-5.291667,0.025,1
33199,0.02685547,0.9487304999999999,-0.31054689999999996,0.6713867,-0.1831055,-0.793457,110.6213,2.021484,60.31494,16.25,-5.408333,0.008333334000000001,1
33499,0.04150391,0.9501953,-0.3110352,-0.4882813,-0.8544921999999999,-1.159668,110.6378,2.059937,60.19958,16.21667,-5.316667,0.04166667,1
33839,0.03076172,0.9536133,-0.3120117,0.4882813,-0.12207029999999999,-0.9155272999999999,110.6158,2.04895,60.19409,16.19167,-5.425,0.06666667,1
34029,0.02685547,0.9458008,-0.3051758,-0.24414059999999999,-1.159668,-0.9765625,110.6378,1.9885249999999999,60.22156,16.20833,-5.308333,0.15,1
34259,0.03759766,0.9487304999999999,-0.3154297,1.7700200000000001,0.4882813,-0.6713867,110.8026,1.994019,60.271,16.19167,-5.45,0.2333333,1
34469,0.03125,0.9482421999999999,-0.3164063,-0.793457,0.06103516,-0.8544921999999999,110.9839,1.922607,60.49072,16.39167,-5.558333,-0.3416667,1
34679,0.03662109,0.9467772999999999,-0.2885742,-0.6103516,-1.403809,-1.098633,110.3632,1.928101,60.41931,13.78333,-27.68333,9.35,1
34939,0.01367188,0.9492187999999999,-0.315918,0.6713867,-0.9155272999999999,-0.9155272999999999,110.5499,1.983032,60.44128,16.15833,-5.125,-0.04166667,1
35159,0.02294922,0.9521484,-0.3076172,-0.06103516,-0.3662109,-1.525879,110.5499,1.977539,60.32043,13.825,-27.61667,9.341666,1
35419,0.02050781,0.9521484,-0.30957029999999996,0.24414059999999999,0.1831055,-0.6103516,110.5444,1.994019,60.44678,16.275,-5.35,-0.01666667,1
35689,0.03125,0.9550780999999999,-0.31054689999999996,0.24414059999999999,-0.8544921999999999,-0.7324219,110.5994,1.878662,60.51819,13.73333,-27.625,9.508333,1
35989,0.04785156,0.9545897999999999,-0.3110352,0.06103516,-0.9155272999999999,-0.6713867,110.4675,1.889648,60.38635,16.11667,-5.225,0.1,1
36299,0.03613281,0.9472655999999999,-0.31005859999999996,0.3662109,-0.42724609999999996,-1.098633,110.5334,1.9006349999999999,60.35889,13.741670000000001,-27.66667,9.433333,1
36589,0.03662109,0.9492187999999999,-0.3134766,-0.42724609999999996,-0.6713867,-1.159668,110.5444,1.8731689999999999,60.36987,16.075,-5.233333,-0.04166667,1
36899,0.03613281,0.9487304999999999,-0.3144531,-0.12207029999999999,-0.5493163999999999,-0.6713867,110.4401,1.8457029999999999,60.46326,13.79167,-27.73333,9.45,1
37189,0.044921880000000004,0.949707,-0.3061523,0.24414059999999999,-1.586914,-1.220703,110.4236,1.807251,60.47974,13.85,-27.78333,9.416667,1
37489,0.04541016,0.9555663999999999,-0.3115234,0.42724609999999996,-1.403809,-0.793457,110.4346,1.867676,60.40283,13.75,-27.73333,9.316667,1
37819,0.026367190000000002,0.9472655999999999,-0.30908199999999997,0.5493163999999999,-1.708984,-0.9765625,110.4071,1.878662,60.5127,16.25,-5.25,0.06666667,1
38179,0.03662109,0.9492187999999999,-0.31005859999999996,0.06103516,-0.4882813,-0.8544921999999999,110.4291,1.878662,60.47974,13.775,-27.68333,9.333333,1
38449,0.03613281,0.9506836,-0.31005859999999996,-0.1831055,-0.1831055,-1.159668,110.4016,1.884155,60.49622,16.19167,-5.225,0.01666667,1
38699,0.03466797,0.9526367,-0.30908199999999997,0.3662109,-0.12207029999999999,-0.9155272999999999,110.3961,1.851196,60.59509,16.175,-5.208333,0.01666667,1
38909,0.03320313,0.949707,-0.30957029999999996,-0.1831055,0.0,-1.159668,110.3522,1.884155,60.54016,13.825,-27.80833,9.508333,1
39139,0.03417969,0.953125,-0.30957029999999996,-0.24414059999999999,-0.3662109,-0.5493163999999999,110.3192,1.851196,60.62256,16.20833,-5.116667,0.025,1
39379,0.04638672,0.949707,-0.3051758,0.1831055,-0.9155272999999999,-0.9765625,110.3247,1.82373,60.57861,13.89167,-27.925,9.358334,1
39639,0.03564453,0.9467772999999999,-0.3066406,0.3051758,0.06103516,-0.7324219,110.3192,1.768799,60.60059,16.225,-5.308333,0.008333334000000001,1
39919,0.052734380000000004,0.9575195,-0.2983398,-0.3051758,-1.220703,-1.525879,110.2423,1.763306,60.52917,13.76667,-27.98333,9.308333,1
40219,0.030273440000000002,0.9458008,-0.3046875,0.6103516,0.1831055,-0.3051758,110.2643,1.8457029999999999,60.46326,16.16667,-5.275,0.04166667,1
40519,0.02197266,0.9462891,-0.3085938,-0.4882813,-0.7324219,-2.075195,110.3027,1.955566,60.271,14.01667,-27.68333,9.1,1
40839,0.04443359,0.9511719,-0.3085938,-0.4882813,-0.3051758,-0.793457,110.2423,1.862183,60.40283,16.18333,-5.2,0.025,1
41139,0.007324219000000001,0.9526367,-0.30908199999999997,-0.9765625,-2.13623,-1.098633,110.116,1.856689,60.39734,16.28333,-5.258333,-0.2083333,1
41429,0.02832031,0.949707,-0.3056641,-0.7324219,0.3662109,-1.525879,109.9017,1.966553,60.58411,13.9,-27.95833,9.133333,1
41699,0.01220703,0.9448242,-0.2993164,1.342773,-2.197266,0.24414059999999999,109.8633,1.8182369999999999,60.64453,16.3,-5.183333,0.275,1
41959,0.02197266,0.9570312999999999,-0.3071289,0.06103516,-0.3662109,-0.5493163999999999,110.083,1.73584,60.56763,16.31667,-5.391667,-0.15,1
42269,0.03955078,0.949707,-0.284668,-1.6479489999999999,-0.5493163999999999,-1.525879,109.5776,1.884155,60.33142,16.2,-4.866667,0.0,1
42569,0.03955078,0.9565429999999999,-0.2978516,0.8544921999999999,-0.6103516,-0.9155272999999999,109.5776,1.889648,60.31494,16.30833,-5.158333,0.05833333,1
42899,0.01220703,0.9555663999999999,-0.29345699999999997,-0.5493163999999999,1.220703,-0.7324219,109.5062,1.917114,60.32043,16.30833,-5.141667,-0.03333333,1
43139,0.03662109,0.9555663999999999,-0.2915039,0.0,0.5493163999999999,-0.3051758,109.3689,1.889648,60.4248,13.83333,-28.2,8.583333,1
43379,0.02832031,0.953125,-0.3061523,-0.06103516,-0.42724609999999996,-0.6103516,109.3524,1.807251,60.54016,16.23333,-4.683333,-0.075,1
43619,0.02832031,0.9565429999999999,-0.2988281,0.5493163999999999,-1.586914,-0.6713867,109.2535,1.851196,60.47974,13.91667,-28.28333,8.65,1
43859,0.046875,0.9521484,-0.29345699999999997,-0.12207029999999999,0.6103516,-1.8310549999999999,109.248,1.812744,60.46875,16.40833,-4.933333,0.0,1
44129,0.020996090000000002,0.9594727,-0.296875,-0.9765625,-1.098633,-1.037598,109.1272,1.889648,60.69397,16.475,-4.991667,-0.1833333,1
44349,0.03222656,0.9487304999999999,-0.2792969,-0.9765625,0.06103516,-1.708984,108.7811,1.928101,60.71594,16.33333,-4.658333,0.2166667,1
44569,0.04052734,0.9555663999999999,-0.2998047,-0.9765625,-0.42724609999999996,-1.098633,109.0228,1.933594,60.49072,16.38333,-4.733333,-0.09166667,1
44839,0.03466797,0.9609375,-0.284668,0.7324219,-0.7324219,-0.8544921999999999,108.9349,1.906128,60.69946,13.775,-28.29167,8.416667,1
45129,0.03564453,0.9545897999999999,-0.2880859,0.793457,0.1831055,-0.8544921999999999,109.1327,1.8951419999999999,60.67749,16.31667,-5.0,0.125,1
45349,0.04003906,0.9633788999999999,-0.284668,-0.42724609999999996,-0.6713867,-0.3662109,109.1931,1.8731689999999999,60.62256,13.70833,-28.3,8.616667,1
45659,0.03173828,0.9594727,-0.2880859,-0.06103516,-0.9155272999999999,-0.42724609999999996,109.1602,1.8402100000000001,60.69946,13.65,-28.275,8.616667,1
45929,0.03808594,0.9545897999999999,-0.2905273,0.42724609999999996,-0.3051758,-0.7324219,109.1052,1.774292,60.61157,16.29167,-5.008333,0.05,1
46189,0.03662109,0.9545897999999999,-0.2827148,-0.24414059999999999,-0.3662109,-0.9765625,109.0613,1.73584,60.61707,16.30833,-4.916667,0.025,1
46499,0.03808594,0.9584961,-0.2885742,-0.06103516,-0.3662109,-0.9155272999999999,109.0833,1.752319,60.54565,16.3,-4.933333,-0.008333334000000001,1
46799,0.03808594,0.953125,-0.2875977,0.3662109,-0.9155272999999999,-1.037598,109.0338,1.779785,60.57861,16.29167,-4.891667,0.1083333,1
47129,0.03564453,0.9550780999999999,-0.2875977,0.24414059999999999,-1.098633,-0.7324219,109.1327,1.796265,60.57861,16.28333,-4.908333,0.09166667,1
47369,0.03857422,0.9541016,-0.2900391,0.7324219,-0.9765625,-0.8544921999999999,109.2645,1.785278,60.55115,13.63333,-28.175,8.775,1
47609,0.03613281,0.9526367,-0.2988281,0.9155272999999999,-0.3662109,-0.793457,109.3799,1.801758,60.55664,16.29167,-4.991667,0.025,1
47859,0.03515625,0.9492187999999999,-0.29443359999999996,1.8310549999999999,0.42724609999999996,-1.281738,109.4788,1.834717,60.64453,16.30833,-5.216667,0.3083333,1
48149,0.02929688,0.9492187999999999,-0.3037109,1.953125,-0.6713867,-0.9155272999999999,109.9127,1.862183,60.85876,16.28333,-5.191667,0.04166667,1
48359,0.03662109,0.9541016,-0.30224609999999996,0.8544921999999999,-1.708984,-1.098633,110.0336,1.867676,60.68848,16.20833,-5.216667,0.1333333,1
48589,0.02441406,0.953125,-0.3046875,-0.24414059999999999,-1.403809,-1.464844,110.116,2.032471,60.72693,13.95833,-27.78333,9.15,1
49849,0.03076172,0.9541016,-0.3071289,-0.793457,-1.8310549999999999,-1.159668,110.0061,1.94458,60.89722,16.24167,-5.108333,-0.1166667,1
50089,0.04003906,0.9477538999999999,-0.3266602,1.220703,-0.12207029999999999,-0.7324219,109.8798,1.928101,60.68848,16.24167,-5.016667,-0.075,1
50389,0.03417969,0.9516602,-0.30957029999999996,-0.1831055,0.4882813,-0.5493163999999999,109.682,1.966553,60.4248,14.00833,-28.0,9.033334,1
50699,0.03515625,0.9926758,-0.3046875,0.6713867,0.12207029999999999,-0.4882813,109.671,1.768799,60.68298,16.45833,-5.575,0.2083333,1
50999,0.03564453,0.9492187999999999,-0.3066406,-0.6103516,-1.159668,-0.1831055,109.6106,1.911621,60.78735,13.69167,-28.06667,8.983334,1
51289,0.05224609,0.9492187999999999,-0.28613279999999996,0.42724609999999996,-1.89209,-0.42724609999999996,109.3964,1.680908,60.54016,13.625,-28.1,8.866667,1
51569,0.01953125,0.9643554999999999,-0.31054689999999996,-0.3662109,0.06103516,-1.464844,109.5721,1.741333,60.62805,16.38333,-5.0,-0.05,1
51819,0.02929688,0.953125,-0.30224609999999996,-0.5493163999999999,-1.8310549999999999,-0.793457,109.4238,1.856689,60.72144,16.29167,-4.916667,0.025,1
52129,0.02929688,0.9526367,-0.2890625,-0.12207029999999999,0.5493163999999999,-2.075195,109.3304,1.9885249999999999,60.71045,16.29167,-4.916667,-0.01666667,1
52429,0.02685547,0.9516602,-0.2890625,0.4882813,-1.281738,-0.793457,109.2755,2.131348,60.5896,16.33333,-4.991667,0.17500000000000002,1
52769,0.030273440000000002,0.9692383,-0.2919922,0.3051758,-2.502441,-0.1831055,109.5007,2.147827,60.39734,16.4,-5.316667,0.15,1
53009,0.026367190000000002,0.9370117,-0.2924805,-1.159668,-0.1831055,-1.953125,109.4458,2.147827,60.49622,13.91667,-27.98333,8.75,1
53249,0.020996090000000002,0.9560546999999999,-0.2983398,0.6103516,-1.220703,-0.6713867,109.5172,2.230225,60.5896,16.35,-4.975,-0.1,1
53489,0.020996090000000002,0.9570312999999999,-0.29492189999999996,0.4882813,0.0,-0.793457,109.4952,2.230225,60.65552,14.23333,-28.025,8.925,1
53729,0.03808594,0.9506836,-0.2915039,-0.3662109,-1.159668,-0.3051758,109.4348,2.164307,60.50171,16.28333,-5.008333,0.025,1
53999,0.03271484,0.9575195,-0.3051758,1.403809,0.6103516,-1.037598,109.4952,2.120361,60.62805,16.3,-5.025,0.075,1
54229,0.03857422,0.953125,-0.2958984,0.6103516,-0.9155272999999999,-0.42724609999999996,109.6545,2.054443,60.5072,13.93333,-27.90833,8.925,1
54489,0.03271484,0.9526367,-0.296875,0.3662109,-0.06103516,-0.7324219,109.6655,1.977539,60.57312,16.275,-5.108333,0.025,1
54709,0.03515625,0.9565429999999999,-0.2988281,-0.3051758,0.24414059999999999,-1.220703,109.649,1.96106,60.60608,13.79167,-27.98333,9.225,1
55019,0.03076172,0.9570312999999999,-0.2954102,-1.098633,-0.9765625,-0.42724609999999996,109.4403,2.005005,60.5896,13.76667,-28.2,8.9,1
55279,0.02587891,0.9536133,-0.2905273,-0.3051758,-0.793457,-1.037598,109.3854,2.005005,60.61157,16.31667,-5.041667,0.09166667,1
55529,0.02587891,0.9536133,-0.2954102,0.4882813,-0.1831055,-0.8544921999999999,109.3909,2.054443,60.54565,13.94167,-28.05,8.916667,1
55829,0.03271484,0.9482421999999999,-0.2915039,0.7324219,-0.6103516,-0.7324219,109.4788,1.983032,60.51819,13.94167,-28.00833,8.783334,1
56110,0.02783203,0.9541016,-0.30126949999999997,0.5493163999999999,-0.6103516,-0.8544921999999999,109.5996,1.9885249999999999,60.54565,16.275,-5.091667,-0.01666667,1
56359,0.03271484,0.9550780999999999,-0.2973633,-0.3051758,-0.3051758,-0.5493163999999999,109.5117,1.96106,60.52917,16.28333,-5.0,-0.01666667,1
56669,0.02978516,0.9575195,-0.2954102,0.06103516,-0.4882813,-0.7324219,109.4348,1.917114,60.59509,16.30833,-5.058333,0.03333333,1
56999,0.03369141,0.9565429999999999,-0.2978516,-0.42724609999999996,-0.3662109,-0.6713867,109.3909,1.889648,60.53467,16.33333,-4.941667,0.05833333,1
57229,0.03076172,0.9511719,-0.2919922,0.7324219,-0.42724609999999996,-0.8544921999999999,109.248,1.862183,60.47424,13.81667,-28.34167,8.825,1
57479,0.03320313,0.9570312999999999,-0.2993164,0.4882813,-0.3051758,-0.8544921999999999,109.3689,1.8457029999999999,60.45776,16.3,-5.066667,0.04166667,1
57719,0.03369141,0.9541016,-0.2929688,0.12207029999999999,-0.5493163999999999,-0.8544921999999999,109.4073,1.829224,60.46326,13.83333,-28.125,8.916667,1
57959,0.03076172,0.9550780999999999,-0.2958984,0.12207029999999999,-0.7324219,-0.9155272999999999,109.4348,1.856689,60.48523,16.28333,-5.058333,0.008333334000000001,1
58239,0.03613281,0.9521484,-0.2954102,0.06103516,-0.1831055,-0.8544921999999999,109.4293,1.8731689999999999,60.47424,16.275,-5.075,-0.05,1
58489,0.030273440000000002,0.9555663999999999,-0.2978516,0.0,-0.4882813,-0.8544921999999999,109.2975,1.867676,60.44678,16.26667,-5.016667,0.008333334000000001,1
58729,0.02978516,0.9526367,-0.2929688,0.12207029999999999,-0.793457,-0.6103516,109.0942,1.8182369999999999,60.37537,13.925,-28.05,8.958333,1
59029,0.03515625,0.9516602,-0.296875,0.7324219,-0.5493163999999999,-0.8544921999999999,109.1272,1.796265,60.32043,16.26667,-5.041667,0.008333334000000001,1
59279,0.03320313,0.9541016,-0.29394529999999996,0.0,-0.8544921999999999,-0.9155272999999999,109.1382,1.867676,60.303960000000004,16.28333,-5.083333,-0.09166667,1
59559,0.02832031,0.9541016,-0.2851563,-1.159668,-0.24414059999999999,-2.075195,108.8086,1.999512,60.30945,16.425,-5.3,0.1333333,1
59879,0.0390625,0.9853516,-0.2563477,-8.972168,-1.525879,-0.9155272999999999,108.3527,2.125854,60.05676,14.21667,-28.65,7.733333,1
60149,0.01416016,1.010254,-0.23730469999999998,-22.33887,-5.004883,-1.464844,103.9801,2.8125,58.50769,14.91667,-30.325,4.016667,1
60459,0.004882813000000001,0.9853516,-0.1254883,-52.6123,4.882813,2.746582,96.13586,2.713623,59.04602,17.575,0.1416667,-7.416667,1
60709,0.01757813,1.07666,0.2026367,-33.3252,-4.943848,-2.258301,82.01294,2.488403,58.62854,19.55,4.566667,-3.575,1
60989,0.07177734,0.9545897999999999,0.269043,-4.516602,1.953125,-1.342773,76.37146,1.966553,57.44751,15.43333,4.2,1.608333,1
61319,0.022460940000000002,0.8779296999999999,0.19042969999999998,25.57373,20.81299,-3.78418,80.56274,2.785034,61.64429,14.775,2.675,4.083333,1
61619,-0.06201172,0.9760742,0.04931641,21.11816,-2.502441,-1.220703,87.74231,3.175049,64.71497,16.73333,0.5166666999999999,0.8916666,1
61869,-0.0546875,0.9521484,-0.01074219,3.90625,11.23047,3.356934,88.78052,3.526611,66.47278,16.875,-1.4583329999999999,0.325,1
62069,0.01416016,1.109375,-0.05224609,4.455566,9.277344,10.55908,90.46692,1.164551,70.42786,10.03333,-34.925,0.2833333,1
62309,-0.16601559999999999,0.9868163999999999,-0.04394531,16.72363,22.88818,-4.638672,91.61499,1.417236,72.41089,16.90833,1.541667,1.366667,1
62519,0.07617188,1.02002,-0.0009765625,-2.13623,104.3701,9.338379,93.64197,-0.4284668,90.88989,16.975,-1.433333,-0.31666669999999997,1
62769,0.005859375,0.9716796999999999,-0.12060549999999999,-0.6713867,71.04492,-11.35254,93.35632,-2.032471,114.7192,21.79167,-0.6416666999999999,-0.6083333,1
63089,0.02929688,0.9960937999999999,0.07910156,3.234863,69.94629,-8.300781,93.33435,-3.317871,135.4449,-23.875,-33.86666,9.741667,1
63379,-0.1015625,0.9492187999999999,-0.06298828000000001,-7.751465,0.1831055,0.6713867,91.81274,-1.263428,145.5359,15.88333,-1.741667,-0.7333333,1
63689,0.0078125,0.9404296999999999,-0.17431639999999998,4.699707,-14.46533,6.164551,91.91711,-2.224731,142.3938,20.56667,2.8,-0.425,1
63929,0.07519531,1.069336,0.06689453000000001,10.62012,-6.896973,5.187988,95.15808,-0.9558105,133.8025,16.90833,0.7833333,-0.6833332999999999,1
64199,0.008789063,0.9252929999999999,-0.1318359,1.7700200000000001,14.46533,-5.004883,93.47168,-2.054443,138.7299,16.85,-4.358333,1.225,1
64509,-0.04736328,0.980957,0.1416016,-4.943848,21.42334,9.82666,94.20227,-4.795532,146.1292,17.2,-0.03333333,1.125,1
64809,-0.07568359,0.9277344,-0.07519531,-7.385254,-3.967285,-1.098633,94.21326,-3.164063,148.4418,15.975,-2.416667,0.01666667,1
65119,0.16650389999999998,1.11377,0.22998049999999998,-1.6479489999999999,-21.54541,-13.61084,95.59204,-2.488403,142.6355,19.35833,2.383333,0.7583333,1
65429,0.05712891,0.9682617,-0.03857422,-8.605957,6.896973,6.164551,96.54236,-1.5325929999999999,139.1968,14.23333,-1.566667,-1.75,1
65749,-0.01660156,1.355957,-0.05810547,9.70459,46.56982,10.37598,95.33386,-1.972046,146.1621,16.50833,0.6416666999999999,1.4583329999999999,1
67049,0.11621089999999999,1.056641,-0.2695313,0.42724609999999996,43.76221,-1.037598,94.11987,-2.570801,144.613,18.86667,1.133333,1.233333,1
67279,-0.1518555,0.9667969,0.078125,1.159668,19.71436,13.24463,93.35083,-6.3555909999999995,151.8365,16.8,-0.31666669999999997,0.8416665999999999,1
67519,-0.04394531,0.8657227,-0.06445313,-8.361816,-21.66748,1.6479489999999999,92.74658,-4.317627,149.09,-28.41667,-37.6,7.108333,1
67759,0.39501949999999997,5.724609,-0.2265625,-3.78418,-40.89355,-16.6626,94.38904,-4.21875,144.0143,17.03333,3.041667,0.5666667,1
67979,0.009765625,1.076172,0.08398438,5.187988,1.037598,3.4790039999999998,94.77356,-1.142578,141.5424,15.51667,0.48333329999999997,-0.5833332999999999,1
68189,0.02294922,0.9287109,-0.03955078,-13.12256,2.624512,-0.3662109,93.08167,-2.883911,142.1246,15.83333,-1.666667,-1.083333,1
68409,0.011230470000000001,1.012207,-0.2246094,4.455566,20.62988,-0.4882813,92.13684,-2.6696779999999998,144.8547,18.575,1.641667,1.216667,1
68619,-0.06933594,1.069336,0.009277344,11.77979,-22.09473,-15.56396,93.9386,-6.097412,150.3259,15.675,-0.5333333,-0.8833333,1
68989,-0.09863281,1.401855,-0.3349609,5.065918,-46.56982,-11.96289,95.63599,-4.251709,144.3713,-26.60833,-37.95833,11.04167,1
69259,-0.01660156,1.042969,0.06884766,7.141113,-10.92529,-1.8310549999999999,95.66895,-0.9942626999999999,139.6692,16.54167,0.08333334,-0.4333333,1
69539,0.03515625,0.9111328,-0.15917969999999998,-2.990723,12.39014,-5.493164,93.66943,-3.240967,143.0914,-25.43333,-39.18333,10.55,1
69829,-0.1342773,1.039551,0.09667969,2.685547,4.211426,14.34326,93.81775,-7.097168,151.3861,15.54167,-0.1166667,0.1,1
70139,-0.01953125,0.8564453,-0.0859375,2.746582,-20.56885,7.446289,93.44421,-4.702148,147.486,-27.625,-36.99166,11.5,1
70489,0.06689453000000001,1.067871,0.09277344,3.90625,-7.446289,-7.385254,97.15759,-1.417236,141.8939,15.71667,-0.5833332999999999,-0.25,1
70749,0.03515625,0.8208008,-0.1318359,-5.004883,7.507324,-7.568359,95.56458,-3.449707,144.1681,18.65,-4.891667,-0.425,1
71059,-0.1474609,1.098145,0.08837891,1.037598,6.225586,5.432129,94.1748,-6.690674,151.1719,16.625,0.7833333,-0.24166669999999998,1
71379,-0.04394531,0.7895508,-0.04833984,-5.249023,-24.59717,4.577637,92.02148,-4.795532,146.9861,17.8,-2.95,1.533333,1
71699,-0.002441406,1.075684,0.199707,6.530762,-15.01465,-11.47461,95.56458,-2.054443,140.0482,16.625,0.2833333,0.6333333,1
71939,0.03466797,0.824707,-0.1235352,-8.972168,16.17432,-7.446289,94.26819,-3.696899,144.7229,-23.86667,-35.9,10.46667,1
72179,-0.16699219999999998,1.287109,-0.12744139999999998,4.272461,34.97314,25.14648,94.04297,-3.773804,147.9803,17.7,3.358333,-0.04166667,1
72409,-0.06396484,0.8540038999999999,-0.04394531,-2.502441,-20.87402,-11.2915,93.62549,-5.443726,149.5789,-27.65,-36.30833,8.833333,1
72649,0.00390625,1.009277,-0.12207029999999999,10.80322,-29.96826,4.272461,94.823,-6.185303,145.6348,-26.40833,-36.05,10.20833,1
72899,0.03173828,1.068359,0.15136719999999998,7.263184,-22.09473,-20.62988,96.17981,-2.6696779999999998,139.9603,17.65833,0.2,0.35000000000000003,1
73149,0.006347656,0.8471679999999999,-0.02148438,-3.90625,27.09961,5.67627,95.3009,-3.982544,142.7618,13.69167,-2.075,-0.65,1
73399,0.020996090000000002,1.111816,0.046875,5.004883,23.31543,26.48926,94.54285,-5.136108,149.8041,19.45,1.875,0.45,1
73639,-0.05566406,0.8725586,-0.01464844,-11.77979,-24.04785,-9.033203,94.14734,-5.223999,150.5566,-28.2,-37.75,9.416667,1
73949,-0.04199219,1.022949,-0.128418,6.835938,-11.84082,-3.051758,94.37805,-5.537109,146.7334,22.44167,2.325,-1.516667,1
74199,0.028808590000000002,0.9321288999999999,0.02685547,0.6713867,0.793457,11.35254,95.12512,-1.774292,143.7231,14.64167,-1.683333,-1.1,1
74459,0.0078125,1.143555,-0.3520508,9.033203,11.77979,1.037598,94.52637,-3.059692,148.4747,-26.75833,-38.625,9.766666,1
74729,-0.13476559999999999,1.10498,0.026367190000000002,9.765625,-6.469727,5.371094,95.22949,-7.404785,152.7649,15.175,-0.1,-0.008333334000000001,1
74989,-0.026367190000000002,0.8056641,-0.07861328000000001,-9.70459,-24.23096,-2.807617,94.95483,-4.899902,149.3591,15.25833,-2.416667,0.5833332999999999,1
75259,-0.052734380000000004,1.014648,0.04541016,3.173828,17.57813,1.525879,97.42126,-1.8457029999999999,143.443,-22.25,-36.13334,13.4,1
75569,0.048828130000000004,0.824707,-0.12695309999999999,-15.44189,11.59668,-6.164551,95.82275,-3.581543,146.0742,17.175,-1.241667,-0.925,1
75839,0.10498049999999999,1.02832,0.1044922,5.981445,34.85107,20.56885,95.44922,-6.6687009999999995,154.1766,18.80833,0.6333333,1.466667,1
76139,-0.03222656,0.8295897999999999,-0.09033203000000001,-12.20703,-20.1416,2.197266,95.31738,-4.658203,150.6061,16.55833,-1.758333,0.4666667,1
76359,-0.12060549999999999,1.621094,-0.29443359999999996,-4.02832,-26.9165,-16.60156,96.92688,-5.306396,147.3761,16.625,1.616667,1.158333,1
76589,0.04296875,0.8374022999999999,0.01953125,-2.197266,22.27783,8.972168,96.48743,-2.70813,145.0305,-23.61667,-36.16667,11.03333,1
76859,0.06542969,0.9868163999999999,-0.09033203000000001,-8.361816,19.83643,-5.004883,94.34509,-2.746582,148.7329,25.625,0.4333333,1.75,1
77099,0.008300781,1.003418,-0.002929688,6.774902,-26.00098,-13.48877,95.82825,-6.498413,153.9954,14.125,0.05833333,-0.9500000000000001,1
77379,-0.004882813000000001,0.8354492,-0.128418,-5.554199,-23.31543,5.249023,94.80103,-5.141602,149.837,16.78333,-1.075,-0.25,1
77639,0.08300781,1.04541,0.1450195,3.662109,-23.86475,-14.4043,96.48193,-2.741089,142.9047,17.55,1.075,0.1166667,1
77879,0.03466797,0.8012695,-0.128418,-16.60156,23.74268,-7.385254,94.04297,-3.570557,147.5574,-24.60833,-37.95833,8.45,1
78179,-0.10498049999999999,1.31543,0.21386719999999998,2.929688,32.59277,33.02002,94.2572,-4.180298,152.8857,19.43333,1.8666669999999999,1.733333,1
78419,-0.10693359999999999,0.8364258,-0.03320313,-6.835938,-24.23096,-7.385254,95.21851,-4.883423,153.6053,13.89167,-2.25,-0.45,1
78689,0.1713867,1.311523,0.10693359999999999,-8.789063,-43.33496,-21.78955,96.28967,-4.2462159999999995,146.3214,-23.83333,-37.66667,10.15833,1
78959,0.03955078,0.9394530999999999,0.04785156,-0.06103516,11.16943,4.943848,96.66321,-2.416992,144.9481,15.05,-0.48333329999999997,-0.8083332999999999,1
79199,-0.01367188,0.9868163999999999,-0.1845703,-3.90625,19.04297,-4.089355,95.13611,-3.136597,151.4026,-26.58333,-38.125,8.3,1
79509,-0.01757813,0.9721679999999999,-0.002441406,4.394531,-31.61621,-16.11328,96.51489,-7.086182,154.8907,14.6,-0.8166667,-1.116667,1
79879,0.2314453,1.272461,0.1381836,-13.85498,-24.96338,-25.75684,96.9104,-3.828735,146.9751,-23.55833,-37.26667,11.35833,1
80209,0.02685547,0.9257812999999999,-0.05712891,-9.82666,3.4790039999999998,6.225586,94.72961,-2.883911,146.1182,-22.975,-38.01667,9.825,1
80549,-0.07080078000000001,1.132813,0.15136719999999998,1.953125,26.48926,28.74756,95.25696,-5.163574,152.9791,18.10833,1.4583329999999999,0.3333333,1
80779,-0.046875,0.9262695,0.007324219000000001,-2.13623,-12.45117,-10.62012,95.52612,-6.427002,153.6108,15.00833,-1.425,-0.7666666999999999,1
81009,-0.04931641,0.8286133,-0.1357422,3.234863,-15.38086,7.324219,94.68567,-4.976807,151.5289,18.60833,-6.516667,1.7083329999999999,1
81199,-0.020996090000000002,0.9790038999999999,0.10888669999999999,-2.929688,-0.42724609999999996,-10.31494,96.71814,-1.752319,146.5356,-21.85,-35.98333,11.18333,1
81449,0.04443359,0.8447266,-0.1040039,-7.446289,13.61084,1.464844,95.64148,-3.24646,148.4637,15.25,-2.908333,-0.40833329999999995,1
81689,0.11083979999999999,0.9785155999999999,0.1044922,9.399414,26.30615,22.27783,94.94934,-5.372314,154.314,-28.49167,-35.575,7.883333,1
81979,-0.03369141,0.8364258,0.01464844,-1.159668,-24.59717,-14.46533,95.24048,-5.795288,153.9294,14.6,-1.483333,-1.608333,1
82229,-0.08642578000000001,1.181641,-0.45800779999999996,13.06152,-15.01465,-3.234863,95.74036,-5.081177,149.0625,-23.70833,-35.6,9.6,1
82519,0.04736328,0.8740234,-0.02441406,-4.882813,18.31055,9.277344,96.56982,-2.521362,146.618,14.28333,-1.625,-1.108333,1
83799,0.04150391,0.8325195,-0.01220703,-5.554199,9.338379,10.74219,95.84473,-2.796021,148.2385,13.84167,-2.583333,-1.658333,1
84059,0.08447266,1.561035,-0.07421875,-3.2958979999999998,20.26367,14.34326,94.88892,-3.927612,151.8201,-26.675,-36.05,7.166667,1
84319,-0.00390625,0.8627929999999999,0.006347656,-8.483887,-21.30127,-17.94434,94.07043,-5.9655759999999995,153.1439,-26.23333,-36.45833,7.025,1
84599,-0.06933594,0.9638671999999999,-0.1401367,13.42773,-27.9541,9.887695,93.82324,-5.52063,150.1282,25.73333,-2.491667,0.8250000000000001,1
84839,-0.03857422,1.040039,0.06152344,2.441406,2.807617,12.39014,95.3009,-1.680908,144.5251,-20.025,-36.78333,9.766666,1
85149,0.07470703000000001,1.008301,-0.11425779999999999,-0.9155272999999999,31.73828,-3.90625,93.97156,-2.796021,147.5354,24.16667,1.675,0.725,1
85489,0.02001953,1.03418,0.0009765625,13.5498,-24.35303,-15.99121,95.55908,-5.93811,152.7155,14.7,-0.5750000000000001,-0.6833332999999999,1
85759,0.011230470000000001,0.9946288999999999,-0.1020508,4.943848,-28.9917,7.263184,96.23474,-5.493164,144.4263,26.23333,1.383333,-0.3833333,1
86129,0.0004882813,0.8955078,-0.024902340000000002,-9.460449,4.150391,3.4790039999999998,94.92737,-1.571045,139.5813,-16.55833,-36.50834,9.858334,1
86399,0.02441406,1.02002,-0.144043,3.356934,24.4751,-3.356934,95.35034,-1.697388,142.3444,18.69167,3.891667,0.5,1
86639,-0.2001953,1.163086,0.08935547,5.67627,-2.868652,13.00049,95.92712,-6.17981,147.3267,15.95833,-0.2166667,0.008333334000000001,1
86849,0.005371094000000001,0.7885742,-0.09472656,0.3662109,-23.86475,8.728026999999999,95.3009,-4.141846,139.9823,-18.25,-35.51667,9.933333,1
87079,0.2431641,1.236816,0.14697269999999998,-17.57813,-20.01953,-28.86963,97.28943,-3.235474,135.4834,19.26667,2.583333,-0.44166669999999997,1
87339,0.01171875,0.9824219,-0.01806641,3.601074,-6.164551,9.70459,96.94885,-0.2252197,132.9785,15.20833,-0.9916666999999999,-0.7583333,1
87559,-0.048828130000000004,1.025879,-0.2587891,3.112793,28.25928,-1.342773,96.37207,-0.7910155999999999,136.2854,19.45,4.275,-0.1,1
87859,-0.01806641,0.9467772999999999,0.01611328,-3.173828,-31.00586,-12.02393,97.70142,-4.872437,137.9608,-16.48333,-35.03333,10.65833,1
88149,0.044921880000000004,0.9794921999999999,-0.21875000000000003,7.080078,-38.57422,-2.563477,98.04199,-3.938599,129.7815,21.73333,3.925,-1.858333,1
88469,0.05078125,0.9394530999999999,0.015625,-3.2958979999999998,7.385254,13.91602,97.70142,-0.45593259999999997,124.7607,-8.908334,-35.40833,9.883333,1
88759,-0.0034179690000000003,1.027344,-0.1806641,2.319336,10.43701,-3.112793,96.84448,-0.9503174,126.6504,-9.941667,-35.83333,9.566667,1
89029,-0.17480469999999998,1.098145,0.125,4.02832,2.13623,11.65771,97.36633,-5.108643,131.4734,16.65833,0.3833333,-0.05833333,1
89279,-0.00390625,0.8164062999999999,-0.06933594,-6.530762,-25.75684,4.150391,95.85571,-2.614746,127.2162,-10.3,-35.725,9.225,1
89569,-0.11865229999999999,0.9863280999999999,0.17382809999999999,-2.929688,-28.68652,-22.2168,97.70691,0.46691889999999997,119.0753,17.39167,1.25,-0.2666667,1
89899,0.02197266,0.828125,-0.08740234,-11.71875,1.220703,-3.356934,95.42175,-1.186523,119.9323,17.14167,-1.641667,0.65,1
90199,0.1694336,0.9677734,0.175293,4.699707,20.50781,25.6958,96.82251,-4.476929,127.771,17.86667,0.8916666,1.491667,1
90529,-0.0625,0.8544921999999999,-0.09082031,-10.43701,-19.9585,3.4790039999999998,96.30066,-1.911621,121.5802,17.1,-1.616667,1.625,1
90739,0.168457,1.598145,0.07617188,-18.49365,-32.34863,-19.34814,98.01453,-1.296387,116.076,19.26667,3.491667,-1.375,1
90959,-0.0078125,0.8237304999999999,0.01074219,-9.399414,2.441406,6.408691,94.88892,0.368042,116.0211,-3.308333,-36.16667,6.866667,1
91199,-0.011230470000000001,1.02832,-0.06835938,-1.037598,15.44189,-2.502441,95.625,0.4119873,117.4054,21.86667,3.45,-0.1,1
91479,-0.1435547,1.138672,0.1323242,-2.624512,5.67627,7.995605,95.53162,-3.88916,121.2836,14.95833,1.15,-0.3083333,1
91679,-0.06201172,0.8398437999999999,-0.022460940000000002,-1.6479489999999999,-23.62061,5.187988,93.29041,-0.8953857,115.5487,-3.841667,-36.45833,6.725,1
91929,0.31835939999999996,1.263184,0.3374023,-2.563477,-24.96338,-28.19824,96.49292,0.4998779,110.451,17.125,1.95,-0.05833333,1
92189,0.01953125,0.8359375,-0.08056641,-5.004883,-0.3662109,-0.6713867,96.14685,0.9063721,111.8903,-0.9,-34.825,8.1,1
92489,0.05859375,1.078613,0.15625,2.441406,21.54541,25.63477,98.20129,-0.7745361,114.5105,-4.25,-34.46667,9.725,1
92759,-0.05322266,0.8701171999999999,0.01855469,-5.7983400000000005,-21.72852,-12.69531,98.04199,-1.010742,112.467,13.24167,-0.9916666999999999,-1.408333,1
93009,-0.1293945,1.2260739999999999,-0.5512695,18.37158,-32.83691,-4.333496,99.50867,-0.4504395,105.0293,17.15,2.258333,1.816667,1
93299,0.06787109,0.7841796999999999,-0.01660156,-6.286621,20.50781,9.277344,97.41028,2.977295,102.8705,2.816667,-34.65833,6.858333,1
93609,0.1328125,1.504395,-0.12451169999999999,-7.263184,46.02051,16.23535,97.84973,2.27417,106.4465,16.35833,2.3,1.008333,1
93929,-0.05371094,0.8291016,-0.026367190000000002,-8.056641,-32.89795,-10.86426,98.09692,0.6756592,107.0123,0.675,-35.325,7.533333,1
94249,-0.07275391,1.491211,-0.3139648,2.990723,-58.10547,-8.361816,100.047,1.257935,97.3938,17.30833,2.475,0.5083333,1
94579,0.01904297,0.7558594,-0.12060549999999999,-7.263184,2.075195,-4.760742,96.93787,3.449707,94.6582,6.158333,-35.39167,4.8,1
94909,-0.02294922,1.103027,0.14257809999999999,1.403809,14.34326,12.57324,98.5968,0.06591797,100.6348,1.666667,-35.50834,7.541667,1
95279,-0.06005859,0.7871094,-0.1044922,4.272461,-30.57861,12.75635,98.15186,2.49939,94.49341,17.98333,-2.566667,1.366667,1
95489,0.2900391,1.192383,0.06201172,-19.89746,-18.24951,-22.94922,100.1349,3.12561,89.08813,20.85833,1.8666669999999999,-1.025,1
95709,0.046875,0.9487304999999999,-0.007324219000000001,-12.57324,10.49805,5.615234,98.34961,5.50415,90.03296,13.625,-2.55,-0.3916667,1
95999,0.01220703,1.025879,0.14697269999999998,7.019043,5.310059,29.84619,97.80579,3.087158,95.74036,5.341667,-35.13334,6.675,1
96269,-0.09277344,0.9165038999999999,0.03222656,-0.8544921999999999,-27.16064,-10.80322,97.97607,1.779785,93.51563,13.55833,-0.5,-1.016667,1
96509,-0.01025391,0.8579102,-0.13525389999999998,5.371094,-20.99609,10.25391,96.53137,2.993774,88.04443,18.31667,-6.291667,2.325,1
96739,-0.05029297,1.003418,0.1113281,-3.723145,10.68115,-10.80322,97.48169,7.421265,81.22742,14.64167,-0.3916667,-1.241667,1
97019,-0.01806641,0.8881836,-0.1655273,8.422852,2.563477,-6.408691,96.25671,5.619507,81.74927,12.95833,-34.16667,2.358333,1
97319,-0.0546875,1.062012,0.02294922,2.441406,-16.23535,-6.04248,97.20703,1.549072,86.56128,9.033334,-34.93333,4.516667,1
97579,-0.03076172,0.8076171999999999,-0.07519531,-8.300781,-11.96289,0.4882813,95.64697,3.581543,84.18274,18.55,-2.458333,2.525,1
97859,-0.017089840000000002,1.087402,0.1679688,-9.58252,-36.62109,-21.30127,97.27844,6.586304,76.4978,17.29167,0.7666666999999999,0.1,1
98159,0.01367188,0.8164062999999999,-0.078125,-7.93457,10.0708,-5.493164,94.16931,5.361328,76.32751,17.81667,-2.166667,-0.05833333,1
98439,-0.15625,1.086426,0.1264648,0.9155272999999999,4.150391,9.765625,96.28967,1.994019,81.78772,16.31667,0.1833333,0.525,1
98759,-0.03222656,0.7963867,-0.05517578,3.845215,-22.76611,5.7983400000000005,95.3064,4.54834,75.76172,17.33333,-2.75,1.366667,1
99039,0.1572266,1.225098,0.1723633,-3.112793,-10.49805,-16.35742,96.15784,7.542114,68.84583,16.05,0.1416667,-0.7666666999999999,1
99379,0.05517578,0.8349609,-0.11621089999999999,-0.7324219,2.929688,-8.361816,93.31787,5.707397,68.89526,18.2,-3.991667,0.9333332999999999,1
99659,-0.1728516,1.074219,0.1074219,-0.6713867,-2.258301,8.056641,95.82275,2.345581,74.66309,15.13333,-33.675,-1.658333,1
99999,-0.04199219,0.828125,-0.12207029999999999,13.67188,-19.53125,11.2915,94.63623,4.542847,67.901,17.86667,-5.075,1.633333,1
101209,-0.02001953,0.8413086,-0.08886719,5.187988,-28.62549,14.5874,94.46594,4.471436,62.36938,18.94167,-7.541667,2.15,1
101429,0.026367190000000002,1.050293,0.09863281,6.164551,5.67627,-0.6103516,96.026,7.904663,54.66248,21.08333,-32.51667,-12.06667,1
101659,0.01220703,0.8491211,-0.06152344,-7.751465,3.967285,-1.159668,95.23499,5.646973,55.66772,15.15833,-3.7,0.36666669999999996,1
101929,0.12207029999999999,1.139648,-0.3710938,-1.037598,26.55029,-0.3662109,96.00952,6.015015,58.39233,17.89167,2.375,0.9416667,1
102159,-0.05859375,1.007813,0.04931641,-0.9155272999999999,-9.70459,-2.868652,95.77881000000001,1.241455,62.28149,14.925,-0.48333329999999997,0.03333333,1
102369,-0.00390625,0.8120117,-0.1914063,20.20264,-9.643555,12.39014,96.29517,2.971802,59.3811,19.29167,-8.216666,2.433333,1
102649,-0.01757813,0.9941405999999999,0.1000977,-1.89209,11.1084,-11.47461,96.47095,7.509155,54.4043,19.825,-33.55833,-11.975,1
102909,0.02929688,0.8393554999999999,-0.11865229999999999,-14.64844,6.04248,-1.708984,94.86694,5.344849,56.32141,16.79167,-1.525,-0.2583333,1
103169,0.07763672,1.01416,0.15917969999999998,3.051758,37.96387,22.76611,95.71289,1.593018,61.48499,14.866670000000001,-36.3,-8.525,1
103459,-0.030273440000000002,0.8159179999999999,-0.04443359,-11.96289,-13.91602,1.220703,94.38904,2.438965,60.22705,15.44167,-36.325,-9.941667,1
103799,-0.1484375,1.081055,0.1293945,10.55908,-37.65869,-19.83643,96.33911,5.284424,55.6897,17.73333,1.2,0.5916667,1
104069,0.07177734,0.8603516,-0.1279297,-11.1084,2.075195,-3.4790039999999998,96.05347,5.388794,55.67871,18.34167,-34.475,-10.15833,1
104349,-0.10058589999999999,1.302734,0.06347656,3.356934,26.79443,41.62598,96.36108,4.350586,58.60107,18.89167,2.008333,0.775,1
104599,-0.044921880000000004,0.8740234,-0.017089840000000002,-6.530762,-27.22168,-11.16943,96.72363,2.103882,58.97461,13.7,-1.616667,-0.48333329999999997,1
104899,0.1923828,1.319336,0.1123047,-9.521484,-49.25537,-23.92578,97.26746,3.14209,51.95984,18.05833,-34.98333,-12.04167,1
105259,0.02392578,0.809082,-0.08496094,-3.90625,10.80322,-7.385254,96.54785,4.641724,52.69043,18.00833,-35.11666,-10.61667,1
105529,-0.020996090000000002,1.199707,0.1386719,3.723145,21.72852,34.85107,97.35535,3.235474,57.28821,18.65,1.325,0.5416667,1
105769,-0.0625,0.8442383,-0.03173828,-8.789063,-17.51709,-2.807617,97.54211,2.087402,57.26074,15.5,-36.34167,-7.5,1
106019,0.1015625,0.9726562999999999,-0.2104492,9.094238,0.06103516,-3.78418,97.8772,1.433716,53.61328,18.83333,3.666667,-1.266667,1
106249,0.2124023,1.176758,0.1645508,4.882813,-3.356934,-12.45117,98.1958,5.932617,49.49341,15.96667,-0.01666667,0.4333333,1
106460,0.03613281,0.8334961,-0.190918,-4.943848,16.23535,-8.850098,98.38806,3.80127,54.77234,17.63333,-34.65833,-7.033333,1
106719,0.06787109,1.041992,0.2089844,8.483887,32.4707,34.36279,98.33313,0.9448242,60.46875,17.925,0.6916667,1.1,1
106999,-0.06347656,0.840332,-0.05908203,-10.19287,-11.16943,-1.953125,97.85522,2.433472,58.24402,16.25,-34.48333,-5.625,1
107259,0.015136720000000001,0.9980469,-0.41845699999999997,4.394531,-15.86914,-0.1831055,99.38232,2.268677,54.17908,17.49167,3.341667,2.05,1
107479,-0.01904297,0.8881836,-0.028808590000000002,-4.089355,6.225586,8.300781,99.25049,6.256714,50.08118,20.24167,-32.73333,-9.108334,1
107779,-0.005371094000000001,0.8237304999999999,-0.2158203,1.159668,8.850098,-4.516602,98.04749,5.608521,50.79529,17.78333,-4.483333,-0.6666667,1
108029,-0.15917969999999998,1.105469,0.10693359999999999,-1.89209,6.347656,17.7002,98.54187,0.2416992,56.49719,14.88333,-0.5583332999999999,-0.5083333,1
108299,-0.02685547,0.8222655999999999,-0.1298828,1.586914,-11.35254,11.23047,97.56958,1.977539,52.49817,17.24167,-34.73333,-9.658334,1
108569,-0.05859375,0.984375,0.1992188,14.95361,-16.05225,-29.1748,98.88794,4.438477,47.90588,17.74167,1.141667,0.35833329999999997,1
108859,0.03955078,0.8198242,-0.06738281,-9.94873,5.493164,-5.554199,97.77832,4.866943,49.11438,16.50833,-3.383333,1.4,1
109169,0.21728519999999998,1.066406,0.109375,5.615234,21.05713,27.22168,99.55261,1.7248539999999999,54.56909,19.10833,-0.06666667,1.45,1
109459,-0.0546875,0.8227538999999999,-0.09033203000000001,-11.1084,-19.16504,1.037598,99.47021,1.889648,54.62402,16.06667,-3.108333,-0.08333334,1
109779,-0.15478519999999998,0.9643554999999999,0.1308594,19.9585,-17.63916,-22.70508,99.0033,4.630737,48.22998,17.85833,1.0,0.7333333,1
109999,0.03759766,0.8300780999999999,-0.07470703000000001,-16.60156,12.146,-3.90625,97.33337,5.284424,48.99902,20.53333,-32.94167,-11.20833,1
110259,0.05761719,1.431641,-0.1806641,6.408691,49.1333,17.63916,98.69019,5.004272,53.84399,17.85,1.966667,0.425,1
110489,0.04931641,1.083008,-0.01757813,8.789063,-13.00049,-14.5874,100.1733,-0.1098633,57.052,13.94167,0.17500000000000002,-1.15,1
110699,-0.01025391,0.9887695,-0.1674805,7.629395,-30.94482,3.662109,98.85498,1.752319,51.33911,17.61667,-34.55,-8.641666,1
110939,0.1323242,1.2416989999999999,0.109375,0.5493163999999999,-19.34814,-20.44678,100.2228,6.416016,45.28015,16.44167,0.2,-0.375,1
111229,0.0546875,0.7485352,-0.09326172,-10.68115,26.55029,-4.02832,97.90466,4.476929,49.76807,19.79167,-33.03333,-9.416667,1
111499,-0.27832029999999996,1.225586,0.01367188,7.629395,28.68652,10.62012,100.9204,0.06591797,58.82629,15.80833,-33.80833,-2.9,1
111799,-0.06933594,0.8896484,-0.03857422,-12.3291,-3.90625,-5.493164,100.5853,2.60376,58.07373,14.25,-2.666667,-1.191667,1
112049,0.1411133,1.129395,0.09960938,-3.4790039999999998,-53.22266,-30.33447,100.1898,5.031738,47.30713,21.19167,-32.45833,-11.45,1
112329,0.05029297,0.9453125,0.0004882813,-6.225586,-7.324219,12.20703,98.47595,7.23999,42.63245,14.51667,-0.45,-2.466667,1
112589,0.006347656,1.095215,-0.3608398,2.685547,27.771,2.075195,96.89392,5.866699,47.26868,17.11667,2.258333,1.233333,1
112869,-0.06982422,0.8413086,0.020996090000000002,-5.432129,15.44189,-7.507324,97.49268000000001,1.417236,54.84924,13.88333,-0.7916667,-1.841667,1
113149,-0.1328125,1.250977,-0.3286133,13.67188,-46.44775,-8.422852,97.66296,1.955566,51.866460000000004,19.46667,1.475,1.316667,1
113479,0.07763672,0.8168945,0.03808594,-10.13184,27.16064,9.70459,97.33887,5.383301,47.14783,13.14167,-1.433333,-1.841667,1
113759,-0.1362305,1.633301,0.10107419999999999,8.789063,31.92139,40.40527,97.54761,4.026489,54.98108,18.88333,2.7,-0.05833333,1
114079,-0.03857422,0.8374022999999999,-0.01025391,-9.765625,-28.56445,-4.516602,97.04224,2.944336,54.76685,12.65833,-1.15,-0.09166667,1
114399,0.2431641,1.189941,0.4179688,-23.31543,-15.56396,-29.35791,98.07495,4.295654,47.69165,20.675,3.0,-0.2333333,1
114629,0.06445313,0.9252929999999999,0.008300781,-0.5493163999999999,21.42334,8.972168,98.01453,6.778564,47.36206,14.68333,-0.7833333,-1.133333,1
114839,0.02392578,0.8208008,-0.1396484,7.080078,3.601074,-7.873535,96.81702,5.828247,49.2627,18.58333,-6.041667,0.275,1
115049,-0.1650391,1.029297,0.02294922,5.371094,-6.774902,5.554199,98.64075,0.0769043,54.86572,15.54167,-34.34167,-6.091667,1
115289,-0.041015630000000004,0.8066405999999999,-0.05810547,-10.74219,-19.65332,-3.90625,97.25098,2.114868,51.65222,13.89167,-2.208333,1.95,1
115549,-0.07373047,0.9448242,0.1635742,10.62012,-15.19775,-32.59277,98.31116,4.213257,46.52161,17.21667,1.283333,-0.2083333,1
115849,0.02929688,0.8144530999999999,-0.1000977,-13.30566,10.62012,-6.225586,96.82251,4.119873,49.62524,18.78333,-33.26667,-9.816667,1
116149,0.1230469,1.526367,-0.09521484000000001,0.7324219,49.80469,18.00537,97.29492,4.334106,53.38257,17.03333,2.566667,0.9333332999999999,1
116399,-0.02539063,0.8149413999999999,0.0,-6.713867,-17.02881,-11.23047,97.59705,2.180786,55.01953,13.78333,-1.858333,-1.15,1
116679,0.20214839999999998,1.358398,0.246582,-11.04736,-39.79492,-35.7666,98.54736,3.828735,50.09216,20.325,2.358333,-0.2333333,1
117959,0.015625,1.045898,0.03613281,0.8544921999999999,13.30566,8.239746,99.29443,5.927124,43.35205,20.225,-32.51667,-11.48333,1
118259,0.028808590000000002,0.7675780999999999,-0.1254883,-11.1084,11.65771,-6.164551,97.59155,3.960571,46.26892,16.75,-1.2,-0.7916667,1
118499,-0.015625,1.092773,0.125,2.441406,31.67725,19.71436,99.29993,0.5383300999999999,53.49243,17.775,0.24166669999999998,0.3083333,1
118769,-0.04541016,0.8110352,-0.09863281,-2.990723,-22.82715,5.065918,96.89941,2.598267,47.27417,17.95,-34.4,-10.275,1
119089,0.33349609999999996,1.186523,0.1401367,-1.953125,-10.80322,-22.09473,97.99255,6.70166,39.52332,21.275,-32.58333,-13.66667,1
119389,0.01953125,0.7807617,-0.1679688,4.760742,8.178711,-8.239746,97.21252,4.449463,42.89063,17.2,-4.675,-0.01666667,1
119759,-0.06005859,0.8769530999999999,-0.01611328,-8.544922,-15.68604,-9.94873,99.05273,2.389526,47.88391,18.775,-33.75834,-8.7,1
119989,-0.060546880000000004,0.9458008,-0.1870117,9.887695,-24.16992,3.173828,98.02002,2.735596,44.82422,23.39167,1.375,-0.2916667,1
120269,0.1459961,1.185547,0.168457,2.197266,-18.37158,-18.18848,99.16809,6.086426,40.177,17.08333,0.44166669999999997,0.55,1
120479,-0.028808590000000002,0.8139647999999999,-0.06542969,-6.469727,7.873535,9.033203,98.99231,4.625244,43.43445,14.225,-2.291667,-1.641667,1
120679,-0.1357422,1.227051,0.2421875,5.004883,48.52295,27.9541,99.20654,2.69165,47.82349,18.46667,-34.18333,-8.158334,1
120929,-0.05761719,0.9355469,-0.01416016,-4.455566,-16.29639,-14.70947,100.0195,0.8459473,49.84497,14.39167,-0.9083334,-2.058333,1
121179,-0.02050781,0.7661133,-0.11865229999999999,6.835938,-20.81299,7.507324,98.21777,2.081909,46.10962,18.26667,-5.533333,1.85,1
121429,0.02001953,1.155273,0.07275391,2.441406,14.22119,-9.643555,100.1404,7.124634,40.54504,14.70833,-0.075,-1.808333,1
121699,0.09472656,0.9702147999999999,-0.07666016,-3.540039,20.62988,-8.544922,98.1134,5.548096,44.32434,26.05,-0.3833333,0.15,1
121989,-0.04541016,1.0698239999999999,0.02001953,6.713867,-22.33887,-12.93945,99.90967,0.8129883,51.14136,14.25,0.0,-1.116667,1
122309,-0.05712891,1.013184,-0.03564453,1.708984,-19.104,-0.42724609999999996,98.53638,2.455444,47.36206,21.24167,-34.59167,-10.625,1
122609,0.01318359,0.9990234,0.02734375,-2.624512,11.84082,10.74219,98.71765,5.883179,44.65393,23.93333,-33.3,-11.825,1
122869,0.04150391,0.8256836,-0.07470703000000001,-12.81738,8.850098,-10.31494,96.60828,4.740601,46.18652,16.99167,-2.583333,0.225,1
123119,-0.24560549999999998,1.174316,0.06347656,2.441406,12.51221,10.25391,98.37158,0.7855225,54.50867,21.31667,-35.525,-6.725,1
123459,-0.01171875,0.7211913999999999,-0.1176758,11.04736,-25.75684,11.1084,95.87769,2.779541,46.62598,16.95833,-6.308333,2.8,1
123759,-0.004882813000000001,1.128418,0.09521484000000001,4.638672,16.47949,-5.493164,98.88245,7.789307,40.13306,14.75833,-0.2333333,-0.8166667,1
124039,0.06982422,0.9624022999999999,-0.13916019999999998,3.112793,13.85498,-3.4790039999999998,98.65723,6.273193,44.38477,25.06667,-0.7666666999999999,0.09166667,1
124379,0.0,1.102539,0.001464844,7.263184,-16.72363,-14.95361,101.0358,0.2801514,49.85596,15.48333,-0.47500000000000003,-1.383333,1
124579,-0.04833984,0.7651367,-0.08984375,-11.1084,-19.104,6.164551,99.0033,2.054443,46.43372,16.4,-1.358333,-0.09166667,1
124839,0.05419922,1.2470700000000001,0.21337889999999998,2.197266,-34.17969,-25.45166,99.90417,6.778564,39.86389,17.91667,1.35,-0.4583333,1
125089,0.01464844,0.8505859,-0.02783203,-13.61084,9.155273,3.051758,98.26721,5.487671,42.44568,13.89167,-2.125,-1.658333,1
125309,-0.03076172,0.9819336,-0.1914063,6.652832,10.74219,-3.051758,96.95984,6.04248,45.01099,21.45833,4.0,1.1,1
125519,-0.02392578,0.9223633,0.03857422,-7.995605,-16.17432,-12.75635,98.31665,1.801758,49.79553,21.13333,-32.91667,-8.991667,1
125789,-0.01025391,0.7900391,-0.10107419999999999,2.258301,-16.90674,9.216309,95.13062,2.735596,46.1261,17.84167,-3.9333329999999997,2.35,1
126019,0.13134769999999998,1.091309,0.1396484,1.403809,7.446289,-17.08984,97.58057,6.740112,40.53955,24.825,-31.30833,-13.75,1
126289,0.01416016,0.8637695,-0.05908203,-4.638672,15.25879,-0.6103516,97.57507,4.674683,44.24194,13.59167,-2.833333,1.558333,1
126539,-0.009765625,1.148926,0.2885742,-2.258301,11.59668,42.78564,99.48669,2.427979,50.74036,20.75,-32.84167,-5.775,1
126849,-0.05029297,0.8227538999999999,-0.03662109,-14.83154,-18.85986,3.4790039999999998,98.4375,2.768555,47.44995,15.16667,-2.458333,0.7000000000000001,1
127149,-0.3432617,1.083496,0.1367188,16.72363,-44.92188,-19.71436,100.0305,5.723877,39.15527,18.025,1.816667,-0.4666667,1
127449,-0.001464844,0.8427734,-0.07373047,-7.93457,3.90625,-6.286621,97.43774,5.614014,40.20447,17.33333,-2.308333,0.48333329999999997,1
127819,-0.01806641,1.086914,0.0009765625,6.04248,-52.24609,-14.03809,101.0797,1.757813,43.68713,22.85833,-32.95833,-8.866667,1
128149,-0.04296875,0.9394530999999999,-0.1411133,9.033203,-27.34375,2.502441,98.45398,5.07019,33.20068,24.90833,-32.925,-17.16667,1
128449,0.01953125,1.094727,-0.01318359,7.568359,-37.71973,-5.004883,98.59131000000001,11.03027,18.121950000000002,14.85833,-0.8333332999999999,-1.716667,1
128829,0.08349609,0.9453125,-0.1459961,-0.24414059999999999,0.3051758,-10.86426,95.88867,9.942627,12.33765,18.80833,-2.475,0.5416667,1
129059,-0.0703125,1.024902,0.030273440000000002,6.164551,-50.23193,8.239746,98.62427,7.679443,13.55164,16.90833,0.3416667,-0.675,1
129339,-0.03222656,0.8896484,0.01171875,-15.74707,-79.40674,-10.0708,94.99329,10.40955,0.1098633,16.61667,-0.5083333,-1.008333,1
129529,-0.03222656,0.8896484,0.01171875,-15.74707,-79.40674,-10.0708,94.99329,10.40955,0.1098633,17.08333,-7.325,1.733333,1
129759,0.06152344,1.008301,-0.0004882813,13.24463,-89.53857,6.9580079999999995,87.89612,11.71692,-42.12708,15.31667,-0.6333333,-0.2166667,1
130039,0.06152344,0.9169921999999999,-0.08886719,-12.75635,-22.15576,-7.019043,83.80371,8.948364,-60.60608,-10.1,-29.70833,-62.65,1
130339,0.005371094000000001,1.291016,0.20556639999999998,13.06152,-1.464844,6.04248,85.65491,10.39307,-58.5791,17.00833,1.883333,1.933333,1
130589,-0.07470703000000001,0.9252929999999999,0.02001953,-4.394531,-108.2764,-16.23535,86.59973,8.695679,-75.18494,15.95833,-0.3416667,0.31666669999999997,1
130869,0.02978516,1.109375,-0.3188477,23.13232,-104.4312,2.868652,85.37476,4.96582,-98.31116,17.825,-0.5833332999999999,1.425,1
131199,-0.04785156,0.8896484,-0.02001953,-5.859375,-80.44434,12.75635,84.19922,3.867188,-121.0693,16.725,-1.216667,-1.05,1
131469,0.1015625,0.9448242,-0.109375,1.281738,15.86914,-1.6479489999999999,81.86462,-0.2087402,-131.8195,-50.26667,-29.18333,-35.44167,1
131819,-0.04736328,0.9399413999999999,0.1289063,-2.13623,10.43701,7.019043,84.0564,-0.9887695,-122.3438,15.6,0.6833332999999999,0.7666666999999999,1
132059,0.006835938000000001,0.9165038999999999,-0.08154297,2.197266,-7.080078,0.4882813,83.49609,1.763306,-124.931,-49.0,-29.975,-35.26667,1
132379,-0.06982422,1.210938,-0.3237305,2.441406,-58.59375,-1.708984,85.44067,0.8953857,-129.765,18.65833,2.133333,0.7583333,1
132649,0.1308594,0.8461913999999999,-0.03320313,-8.666992,-3.417969,8.728026999999999,83.33679,-0.368042,-138.3289,-52.29167,-29.1,-25.175,1
132989,0.1054688,1.228516,0.1640625,17.76123,8.728026999999999,20.56885,86.35254,-0.802002,-132.0831,-52.45,-28.23333,-27.825,1
133319,-0.0703125,0.9003905999999999,0.001953125,-5.737305,-10.98633,-9.70459,86.27014,-0.01098633,-129.7101,14.76667,-1.183333,0.2,1
133839,0.02734375,1.032715,0.121582,-2.868652,13.06152,12.146,85.4187,1.389771,-136.7688,15.675,0.2,-0.09166667,1
134069,0.041015630000000004,0.8920897999999999,-0.08935547,7.141113,10.19287,-4.699707,83.38074,-0.401001,-132.7423,-51.725,-28.05833,-26.04167,1
134339,0.01220703,1.198242,0.05224609,18.18848,47.36328,14.4043,85.5835,-0.4998779,-126.2109,16.08333,2.383333,-0.8416665999999999,1
135569,0.0703125,1.441895,-0.0859375,1.953125,37.29248,7.629395,84.40247,2.015991,-123.8159,17.85833,1.641667,0.5333333,1
135779,0.008789063,0.9482421999999999,0.1259766,-5.554199,-5.371094,-0.793457,84.74304,-0.1702881,-118.6578,14.59167,0.5083333,-0.4,1
135999,-0.06005859,0.8305663999999999,-0.01806641,-3.967285,-11.1084,-4.821777,83.17749,2.186279,-120.6354,14.225,-0.6166667,0.35000000000000003,1
136249,0.008789063,1.01123,0.12255859999999999,-0.3662109,-12.57324,-14.83154,85.40771,2.351074,-125.1453,17.59167,2.916667,-0.1,1
136479,0.0004882813,0.8984375,0.06494141,-0.8544921999999999,9.82666,17.94434,85.32532,3.433228,-126.3263,15.175,0.1666667,-0.3833333,1
136689,0.08056641,1.102051,-0.1098633,7.995605,23.37646,-6.286621,85.00671,1.9885249999999999,-122.9919,20.34167,-1.2,1.883333,1
137009,-0.02197266,0.9882812999999999,0.05224609,3.78418,-4.638672,-19.04297,86.56128,0.1208496,-116.8121,-47.19167,-31.63333,-31.33333,1
137299,-0.07373047,0.9267578,-0.09375000000000001,5.004883,-15.13672,4.02832,85.45715,2.180786,-120.4047,-46.96667,-32.675,-29.81667,1
137579,-0.11669919999999999,1.03125,0.1835938,2.258301,-44.25049,-12.51221,86.17126,2.977295,-125.9802,16.21667,2.9333329999999997,-0.35000000000000003,1
137849,0.01416016,0.8183594,-0.05029297,-5.249023,17.82227,11.90186,84.30359,2.241211,-123.5468,13.866670000000001,-1.575,1.358333,1
138119,0.01367188,1.122559,0.12402339999999999,11.53564,45.10498,14.16016,87.44568,1.005249,-117.0209,16.6,1.841667,-0.6833332999999999,1
138469,-0.0390625,0.8452147999999999,-0.03466797,-5.67627,-8.056641,-5.554199,85.36377,2.021484,-115.9222,15.00833,-1.808333,1.008333,1
138739,0.2124023,1.129395,0.3120117,-6.530762,-22.09473,-20.56885,87.29187,2.510376,-120.7397,14.84167,0.5166666999999999,-1.291667,1
139169,0.04345703,0.8149413999999999,-0.1367188,-1.7700200000000001,4.272461,-6.469727,84.97925,2.746582,-117.0648,19.125,-3.791667,-0.1333333,1
139389,0.09912109000000001,1.228027,0.2197266,3.173828,19.104,17.27295,86.06689,1.5051269999999999,-113.8623,17.075,2.708333,-0.9916666999999999,1
139619,-0.004882813000000001,0.8481445,0.056640630000000004,-3.4790039999999998,-10.13184,-18.06641,85.69885,1.126099,-112.2968,13.94167,0.3083333,-0.6166667,1
139829,-0.01953125,1.132813,-0.05517578,19.34814,-0.7324219,-6.9580079999999995,86.66565,2.04895,-113.6151,-45.25834,-31.90833,-31.775,1
140089,0.11621089999999999,1.037109,0.1767578,-6.530762,-9.399414,-15.38086,87.4292,5.778809,-116.4386,15.45,0.47500000000000003,-0.45,1
140309,0.041015630000000004,0.8061522999999999,-0.05322266,-8.789063,1.403809,-9.521484,85.62744,3.323364,-114.5929,-44.65833,-32.05833,-32.1,1
140549,0.1333008,1.192383,0.08447266,12.93945,29.35791,11.65771,87.31384,2.180786,-112.4066,16.55,2.208333,-1.225,1
140839,-0.05957031,0.8510742,0.03076172,-5.737305,-9.94873,-8.178711,85.28137,3.78479,-112.1979,-44.25834,-31.975,-33.45833,1
141099,-0.01416016,1.077637,-0.17822269999999998,17.15088,-8.422852,-2.990723,85.14404,3.306885,-114.0656,22.29167,4.833333,-0.075,1
141359,0.05175781,0.9013671999999999,0.04150391,-2.197266,3.173828,17.94434,86.33057,4.367065,-120.152,15.275,-0.6583333,-0.375,1
141659,-0.0004882813,1.166504,-0.3198242,6.591797,19.65332,4.02832,86.72607,2.977295,-116.9934,-45.06667,-32.41667,-29.94167,1
141949,-0.07714844,0.8339844,0.05029297,-4.333496,-19.16504,-19.47021,87.21497,1.5271000000000001,-110.3082,14.89167,-0.2083333,-0.675,1
142259,-0.03222656,0.8261719,-0.02832031,5.737305,-8.666992,3.417969,85.47363,2.856445,-113.1592,19.45833,-4.1,1.841667,1
142509,0.09179688,1.106445,0.21777339999999998,-6.896973,-7.8125,-17.8833,86.31409,3.988037,-119.2566,16.4,0.6000000000000001,-0.5416667,1
142759,0.04638672,0.7753905999999999,-0.05371094,-6.225586,20.69092,-1.525879,83.04016,2.224731,-116.5979,18.63333,-2.875,0.8166667,1
143089,-0.1489258,1.005371,0.1293945,-5.371094,23.4375,13.5498,86.09436,0.1647949,-107.3364,14.39167,0.8333332999999999,-0.2166667,1
143369,-0.02539063,0.8535155999999999,0.01074219,-5.554199,-19.77539,4.821777,83.43567,1.71936,-109.6436,18.33333,-4.225,2.675,1
143729,0.07226563,0.8256836,0.06494141,-2.01416,20.99609,10.37598,86.50635,3.751831,-112.0276,-44.01667,-32.775,-30.225,1
143959,0.026367190000000002,0.7792969,-0.15039059999999999,-5.004883,2.807617,-3.967285,84.88586,3.191528,-109.281,18.95,-5.116667,0.1416667,1
144239,-0.07861328000000001,1.140625,0.2651367,7.263184,33.20313,18.79883,85.79224,2.949829,-105.2271,17.65833,2.108333,-0.05,1
144449,-0.03369141,0.9223633,0.06787109,-1.7700200000000001,-26.00098,-18.24951,86.74255,2.323608,-104.3152,14.33333,0.2583333,-1.375,1
144669,-0.05810547,0.8242187999999999,-0.044921880000000004,-1.037598,-15.44189,3.417969,83.99048,3.66394,-107.5616,18.45,-4.283333,1.783333,1
144879,0.1152344,1.121094,0.1967773,0.3662109,-6.286621,-14.5874,86.13831,5.877686,-114.1479,14.71667,1.091667,0.025,1
145159,0.03662109,0.8276367,-0.1000977,-1.159668,-4.02832,-1.7700200000000001,85.04517,3.169556,-113.7854,18.76667,-2.65,0.7833333,1
145499,-0.09960938,1.039063,0.15087889999999998,-3.78418,33.44727,19.53125,88.09387,0.2197266,-105.9302,15.19167,0.925,-0.7583333,1
145759,-0.06494141,0.8271484,-0.07714844,-5.92041,-4.394531,4.02832,85.95154,2.636719,-108.9569,-44.51667,-32.05833,-30.41667,1
146099,0.07373047,1.015625,0.2231445,-3.601074,-15.13672,-20.50781,87.62695,4.9823,-113.5986,18.14167,0.9500000000000001,-0.1833333,1
146369,-0.004882813000000001,0.8051758,-0.1020508,-14.22119,4.211426,-1.159668,86.28113,3.356323,-108.4131,-43.58333,-32.55,-31.33333,1
146649,-0.01806641,1.242188,-0.1015625,11.90186,29.47998,16.6626,88.20374,2.807007,-105.0732,17.31667,3.025,-0.6666667,1
146919,-0.07666016,0.8354492,0.006835938000000001,-4.455566,-16.47949,-15.01465,87.00623,2.779541,-102.9199,13.64167,-0.85,-0.6916667,1
147189,0.2885742,1.215332,0.1655273,-10.68115,-25.63477,-23.55957,87.82471,3.290405,-107.3309,18.11667,3.908333,-0.5,1
147539,-0.002929688,0.8808594,-0.0703125,4.333496,11.96289,12.146,87.2644,4.438477,-106.3641,14.15,-1.65,-0.8833333,1
147809,0.006347656,1.172363,0.1230469,10.68115,37.8418,10.00977,88.31909,3.224487,-103.5736,18.725,3.058333,-0.17500000000000002,1
148179,-0.05566406,0.8657227,-0.0859375,-5.554199,-5.554199,8.666992,87.70386,3.955078,-104.024,19.1,-0.65,1.216667,1
148469,0.27880859999999996,1.373535,0.09277344,-3.723145,-38.81836,-26.30615,89.96155,3.845215,-107.0013,18.80833,3.683333,0.375,1
148679,0.27880859999999996,1.373535,0.09277344,-3.723145,-38.81836,-26.30615,89.96155,3.845215,-107.0013,15.60833,0.1083333,-0.775,1
148899,0.1054688,1.072754,-0.08886719,-1.525879,7.202148,-4.760742,88.52783,4.207764,-106.4575,23.28333,-1.775,1.5833329999999999,1
149159,0.07470703000000001,0.9853516,0.1557617,2.197266,23.74268,19.65332,89.54956,1.829224,-100.437,16.43333,1.45,0.06666667,1
149379,-0.04443359,0.8520508,-0.05517578,-8.361816,-7.324219,-0.6103516,87.2699,3.636475,-102.6123,-44.5,-32.475,-33.31667,1
149689,-0.1279297,1.135742,0.11474609999999999,10.00977,-26.24512,-14.83154,89.23096,4.707642,-105.0952,-44.05,-33.625,-29.89167,1
149959,-0.02734375,0.8598633,0.03320313,-2.075195,-0.8544921999999999,15.99121,88.61572,5.482178,-107.1771,14.79167,-0.5,-0.9916666999999999,1
150209,-0.015136720000000001,1.227539,-0.23681639999999998,0.9765625,17.63916,1.342773,88.21472,4.685669,-105.304,20.54167,-0.1,1.883333,1
150509,-0.03515625,0.9350586,0.1328125,-11.65771,6.835938,13.3667,88.97278,1.213989,-99.7998,14.18333,0.5666667,-0.8166667,1
150749,-0.005371094000000001,0.8476562999999999,-0.09619141,3.90625,3.112793,7.385254,86.33057,3.257446,-102.5354,18.475,-3.258333,1.591667,1
150989,0.06787109,1.102539,0.2036133,-9.094238,-5.7983400000000005,-24.84131,88.46741,6.399536,-107.2211,-43.94167,-34.08333,-28.825,1
151309,0.04150391,0.8427734,-0.10107419999999999,-12.3291,3.417969,-10.43701,86.52832,3.411255,-104.3262,-45.3,-32.65833,-31.40833,1
152609,-0.04541016,1.162598,-0.28662109999999996,10.00977,17.02881,3.051758,88.57178,4.5593259999999995,-100.6567,-44.54167,-32.64167,-31.80833,1
152919,-0.04589844,1.026367,0.07861328000000001,-2.075195,-10.62012,2.075195,89.87915,0.9722900000000001,-94.99329,15.04167,0.03333333,-0.8166667,1
153169,-0.03271484,0.8364258,-0.09082031,15.86914,-3.112793,8.178711,87.76428,3.674927,-102.6947,19.15833,-6.191667,1.491667,1
153469,0.009277344,1.013672,0.1357422,-4.089355,17.63916,-11.23047,89.6759,6.970825,-106.4191,14.025,0.48333329999999997,-0.7083332999999999,1
153809,-0.01806641,1.415527,-0.1157227,-2.197266,14.46533,8.972168,89.02771,3.724365,-101.4368,-44.73333,-32.05833,-29.85833,1
154079,-0.011230470000000001,1.018066,0.09082031,0.3051758,2.685547,0.6103516,89.46167,1.07666,-97.13013,14.866670000000001,-0.1083333,0.5583332999999999,1
154309,-0.05615234,0.8466796999999999,-0.06542969,-7.446289,4.333496,-2.441406,88.59924,3.290405,-96.48743,15.15,-1.541667,0.875,1
154529,-0.2246094,1.029785,0.1074219,8.666992,-35.52246,-22.82715,90.51636,4.542847,-101.4862,-43.1,-32.53333,-27.93333,1
154759,0.048828130000000004,0.8310546999999999,-0.002441406,-6.225586,-2.441406,13.91602,88.86292,3.718872,-104.09,14.34167,-1.325,-2.433333,1
155019,0.04394531,1.066895,-0.1176758,3.662109,7.568359,-5.004883,87.79724,2.537842,-102.2662,24.89167,0.725,0.375,1
155239,0.04052734,1.039551,0.08740234,4.089355,15.44189,-12.3291,88.64319,0.1593018,-92.98279,14.65833,0.8333332999999999,-0.5166666999999999,1
155539,-0.05761719,0.890625,-0.1376953,21.91162,-26.48926,10.92529,87.37427,2.120361,-92.27417,-43.11666,-29.69167,-33.59167,1
155829,0.04150391,0.9912109,0.04199219,5.004883,10.31494,10.98633,90.69763,4.130859,-98.32214,14.725,-0.1,-0.3833333,1
156149,0.1035156,1.052734,-0.1333008,0.5493163999999999,14.64844,-4.882813,90.09338,3.12561,-96.1853,-43.3,-29.89167,-30.475,1
156449,0.01806641,0.8808594,0.03417969,-1.464844,-5.126953,-18.55469,90.91187,1.779785,-90.36255,14.125,-0.05833333,-0.7166667,1
156779,0.15087889999999998,1.095215,-0.1318359,10.0708,-2.075195,-5.67627,91.30188,2.785034,-92.78503,18.24167,2.258333,1.008333,1
157069,0.06738281,0.8339844,-0.01757813,-8.300781,-5.981445,17.7002,90.13184,5.2624509999999995,-98.2782,13.96667,-0.7833333,-1.225,1
157389,0.007324219000000001,1.174805,-0.3374023,8.789063,35.70557,5.004883,90.07141,4.751587,-95.80627,19.80833,3.2,1.183333,1
157669,-0.10498049999999999,0.8369141,0.009765625,-5.554199,-7.019043,-16.90674,91.02173,2.861938,-88.23669,-42.38334,-32.28333,-33.175,1
158029,-0.109375,0.8789062999999999,0.3164063,5.065918,33.08105,-32.40967,89.98901,4.5593259999999995,-95.41077,-43.31667,-33.125,-29.20833,1
158399,0.04980469,0.8144530999999999,-0.07958984,-15.56396,-1.7700200000000001,-0.9155272999999999,89.12659,4.070435,-94.01001,15.66667,-1.9583329999999999,1.35,1
158619,-0.1884766,1.524414,0.03759766,11.41357,5.371094,18.12744,90.43945,3.88916,-91.86218,17.91667,4.108333,-0.2333333,1
158819,-0.00390625,0.9848633,0.04833984,-3.723145,-3.356934,-16.72363,90.87341,1.488647,-90.35156,14.80833,0.275,-0.5666667,1
159019,-0.041015630000000004,0.8305663999999999,-0.03710938,-11.16943,-20.01953,-2.502441,88.12134,4.32312,-92.65869,16.48333,-1.425,1.95,1
159239,-0.3242188,1.07373,0.15820309999999999,7.8125,-11.1084,-15.93018,91.39526,5.635986,-96.22375,-43.49166,-34.29167,-26.675,1
159479,0.01025391,0.8637695,-0.04833984,-3.90625,9.399414,10.74219,90.90088,5.202026,-94.11987,13.41667,-1.916667,-1.416667,1
159759,0.08398438,1.066406,-0.121582,12.146,11.23047,-2.746582,91.4447,5.026245,-92.87292,23.98333,1.4583329999999999,1.0,1
159989,-0.03662109,0.9750977,0.01660156,-0.24414059999999999,5.187988,-18.06641,93.02673,0.9832763999999999,-85.07263,-44.225,-32.975,-32.55,1
160249,0.004882813000000001,1.041504,-0.07617188,10.13184,-28.50342,9.70459,91.0437,2.532349,-89.98901,-45.34167,-32.64167,-30.89167,1
160559,0.2460938,1.135254,0.2480469,-7.69043,-16.35742,-18.37158,92.27966,5.048218,-94.19128,17.36667,0.7916667,-0.25,1
160799,0.020996090000000002,0.7553711,-0.09228516,-0.3662109,10.37598,-13.06152,91.1261,3.790283,-86.84143,-42.875,-34.15,-33.44167,1
161079,-0.1157227,1.119629,0.1606445,-3.173828,24.59717,13.61084,93.26843,0.8953857,-76.2561,15.825,0.5916667,-0.8166667,1
161399,-0.03808594,0.7646484,-0.02685547,-10.80322,-21.3623,9.521484,88.93433,3.251953,-78.67859,-43.39167,-32.33333,-38.28333,1
161719,0.09912109000000001,1.208496,0.1850586,10.19287,-4.455566,-12.45117,92.08191,5.718384,-84.24316,15.55,1.05,0.4,1
162019,0.03222656,0.7456054999999999,-0.1289063,-0.06103516,23.25439,-10.92529,91.63696,3.883667,-77.03613,18.35833,-4.008333,0.025,1
162299,-0.1054688,1.031738,0.1123047,-1.403809,36.49902,11.41357,93.58704,0.3131104,-67.1759,15.16667,0.5583332999999999,-0.5666667,1
162619,-0.08691406,0.7871094,-0.07226563,-4.760742,-10.31494,11.47461,91.23047,2.521362,-68.2196,18.01667,-1.8666669999999999,0.7166667,1
163029,0.06201172,0.8295897999999999,0.001953125,-12.20703,41.01563,10.80322,92.99927,5.218506,-66.50574,14.33333,-0.6916667,-1.266667,1
163259,-0.03173828,0.7998046999999999,-0.1376953,13.48877,9.643555,-6.164551,92.25769,4.438477,-62.75391,20.35,-4.775,0.525,1
163469,-0.022460940000000002,0.9545897999999999,0.109375,-2.13623,4.02832,7.019043,93.84521,-0.4779053,-55.5304,-35.21667,-32.98333,-47.86666,1
163719,-0.03662109,0.8583984,-0.04833984,-10.62012,-6.896973,-5.737305,92.35657,2.252197,-56.66199,13.61667,-1.375,1.366667,1
163979,-0.2075195,1.390137,-0.4628906,21.78955,-21.30127,-9.033203,94.13086,1.439209,-58.43079,17.48333,2.65,2.283333,1
164209,0.030273440000000002,0.8212891,0.04345703,-2.319336,32.59277,12.26807,94.93835,4.383545,-56.03027,-32.675,-34.05833,-47.475,1
164479,0.05175781,1.619629,0.02001953,3.4790039999999998,47.24121,14.5874,95.32288,3.922119,-50.28992,-30.29167,-34.575,-48.74166,1
164779,-0.044921880000000004,1.094238,0.04345703,5.92041,-9.765625,-16.29639,96.44897,0.1208496,-45.62073,14.741670000000001,0.03333333,-0.8666667,1
165029,-0.020996090000000002,0.9409179999999999,-0.1650391,12.75635,-20.01953,13.06152,94.37805,2.905884,-50.7843,-32.10833,-34.1,-47.68333,1
165309,-0.05517578,1.007324,0.1357422,-8.483887,19.40918,3.90625,95.00977,6.871948,-55.32715,14.40833,0.225,0.1166667,1
165639,0.08251953000000001,1.004883,-0.09863281,5.371094,15.19775,-8.300781,95.25696,4.509888,-48.97156,26.275,-0.075,1.725,1
165909,-0.02929688,1.062988,0.01757813,2.01416,-10.25391,-12.63428,96.56982,-0.027465820000000002,-42.48962,14.875,-0.6083333,-1.208333,1
166249,-0.03222656,0.8701171999999999,-0.03710938,10.68115,-11.35254,9.82666,94.65271,2.548828,-44.95605,25.28333,-6.5,2.833333,1
166549,-0.09667969,1.004395,0.11279299999999999,0.24414059999999999,22.94922,4.211426,96.32813,6.646729,-47.75757,15.03333,-0.06666667,0.08333334,1
166859,0.06542969,0.9252929999999999,-0.13134769999999998,12.146,20.75195,-8.117676,95.72388,4.570313,-44.53308,25.65,-3.416667,-0.17500000000000002,1
167159,-0.10693359999999999,1.051758,0.052734380000000004,0.793457,-2.258301,-10.43701,96.68518,-0.09887695,-36.397710000000004,14.89167,0.09166667,-0.03333333,1
167499,-0.04052734,0.8603516,-0.1015625,9.887695,-14.5874,11.16943,95.15808,2.318115,-41.20422,20.56667,-7.2,2.308333,1
167719,-0.09082031,0.9951171999999999,0.137207,-2.929688,18.12744,-3.90625,96.70715,7.025757,-43.44543,-24.96667,-35.58333,-47.35833,1
167969,-0.008300781,0.8422852,-0.1123047,-11.90186,-2.13623,1.708984,95.28442,3.949585,-40.22644,15.28333,-2.066667,1.341667,1
168209,0.2319336,1.32959,-0.284668,7.324219,45.16602,5.249023,96.82251,3.845215,-38.45215,17.63333,3.6,0.9,1
168429,-0.07275391,1.032227,0.041015630000000004,4.516602,2.502441,-11.53564,97.74536,-0.7196045,-32.51953,15.26667,-0.40833329999999995,-0.44166669999999997,1
168649,-0.07226563,0.8007812999999999,-0.05908203,-1.6479489999999999,-2.868652,10.25391,95.97107,2.037964,-33.47534,18.05,-4.366667,1.483333,1
169889,-0.008789063,0.7944336,-0.04345703,-0.1831055,-18.67676,11.1084,95.43274,2.680664,-31.0968,18.65,-3.733333,0.9416667,1
170109,0.24951169999999998,1.27002,0.144043,-10.86426,-17.51709,-20.44678,97.19055,3.147583,-34.78821,19.41667,3.916667,-0.7833333,1
170379,0.01855469,0.918457,-0.06835938,-4.02832,25.75684,12.93945,96.1084,2.938843,-28.58093,13.575,-2.175,-0.2666667,1
170669,-0.03564453,1.253906,0.1123047,2.319336,38.45215,22.70508,97.98157,1.3623049999999999,-21.26404,-14.68333,-35.95833,-49.825,1
170929,-0.06884766,0.8632812999999999,0.02392578,-6.896973,-2.990723,-10.0708,96.24023,0.7745361,-14.79309,-11.78333,-35.39167,-50.63334,1
171269,0.1542969,1.677734,-0.03466797,11.2915,-43.21289,-21.48438,97.67395,0.8349609,-18.52295,-13.00833,-35.91667,-49.64167,1
171529,0.02392578,0.8388671999999999,-0.04980469,-2.319336,36.49902,6.713867,96.68518,3.010254,-14.73816,-10.03333,-35.65833,-50.08333,1
171849,0.09375000000000001,1.064941,-0.05224609,5.554199,18.9209,-4.638672,97.38281,3.438721,-11.71692,23.54167,0.6166667,1.241667,1
172099,-0.001953125,0.9936522999999999,0.044921880000000004,-1.586914,-6.164551,-20.75195,98.09692,-0.8349609,-6.064453,14.00833,0.2916667,-1.05,1
172369,-0.08154297,0.8378905999999999,-0.08544922,-9.643555,6.103516,1.953125,95.85571,1.027222,-5.377808,18.66667,-1.858333,1.625,1
172679,0.04199219,1.013184,0.1103516,-4.272461,11.41357,14.95361,96.95435,4.894409,-8.651733,-4.975,-35.775,-49.33333,1
172899,0.03417969,0.828125,-0.08154297,-13.06152,-5.981445,-2.01416,94.68018000000001,2.39502,-7.476196,17.125,-0.8250000000000001,0.7583333,1
173129,-0.04443359,1.436035,-0.02587891,9.216309,11.41357,19.65332,95.97107,1.796265,-6.405029,17.56667,3.016667,-0.04166667,1
173339,-0.017089840000000002,0.9970703,0.07763672,0.3662109,-5.615234,-16.35742,96.19629,-0.7141113,-1.307373,14.15833,0.275,-0.6000000000000001,1
173539,-0.09228516,0.8491211,-0.026367190000000002,18.73779,-16.23535,6.896973,94.21326,1.411743,-3.240967,-3.533333,-35.51667,-49.9,1
173819,-0.015625,1.064453,0.2504883,-0.4882813,-20.1416,-22.46094,95.97656,4.334106,-6.212769,17.825,2.175,-0.5,1
174069,-0.02001953,0.8476562999999999,0.002929688,-7.202148,8.361816,13.79395,94.22424,4.152832,-4.196777,13.725,-1.266667,-0.6416666999999999,1
174289,0.1567383,1.496582,-0.2202148,6.652832,26.12305,7.080078,95.09766,2.49939,-5.273438,16.44167,3.025,0.9166667,1
174559,-0.02392578,0.8681641,0.01171875,1.708984,-7.385254,-13.61084,95.88318,0.5328369,-2.015991,-2.633333,-36.81667,-48.4,1
174829,-0.06103516,0.7739258,-0.01757813,10.00977,-13.79395,9.155273,95.07568,0.703125,-3.070679,27.925,-6.516667,-0.9,1
175109,-0.04394531,1.021973,0.09423828000000001,2.197266,0.0,5.004883,96.15784,5.185547,-6.871948,14.34167,0.1833333,-0.075,1
175379,0.078125,1.04834,-0.137207,6.896973,10.92529,-2.990723,95.04822,3.076172,-4.32312,-1.7083329999999999,-36.64167,-49.29167,1
175649,0.1835938,1.004395,0.15039059999999999,6.04248,39.30664,18.67676,97.43225,-0.5328369,2.021484,17.575,0.075,0.6916667,1
175889,-0.06494141,0.8027344,-0.07666016,-12.93945,-13.48877,5.371094,96.026,2.27417,1.087646,-0.2833333,-37.30833,-47.71667,1
176219,-0.05712891,1.046387,0.2036133,-4.394531,-37.96387,-24.29199,97.90466,5.245972,-5.432739,17.50833,0.35833329999999997,0.01666667,1
176539,0.04345703,0.8027344,-0.05322266,-18.06641,-1.098633,-5.554199,95.3064,4.020996,-4.026489,19.18333,-2.375,1.341667,1
176809,-0.03417969,1.095215,0.1933594,-9.338379,24.29199,23.92578,97.72339,-0.3515625,1.433716,15.0,0.5166666999999999,-1.908333,1
177189,-0.02929688,0.8330078,-0.08056641,-10.43701,-3.112793,1.281738,93.50464,2.488403,-0.6646729,18.83333,-1.383333,2.55,1
177389,0.0390625,1.078613,0.2905273,-3.2958979999999998,-22.94922,-16.17432,96.13037,5.993042,-5.223999,0.36666669999999996,-36.275,-48.76667,1
177639,0.03369141,0.8608397999999999,-0.02978516,-2.624512,-1.89209,10.68115,95.13062,4.345093,-4.498901,14.39167,-1.566667,-2.358333,1
177909,-0.07763672,1.28418,0.04833984,18.37158,25.5127,20.75195,95.59204,2.686157,-3.729858,16.9,3.341667,-0.1083333,1
178169,-0.02050781,0.953125,0.044921880000000004,-1.953125,-4.882813,-15.25879,96.16882,0.07141113,-0.7141113,14.21667,-0.275,-0.8416665999999999,1
178399,-0.024902340000000002,1.120605,-0.05126953,12.3291,4.272461,1.464844,95.33936,1.466675,-3.894653,23.7,3.316667,-1.358333,1
178699,-0.004882813000000001,0.9565429999999999,0.07519531,-1.403809,14.34326,15.86914,95.66895,5.20752,-5.306396,-0.1416667,-37.15833,-49.225,1
178999,0.009277344,1.070801,-0.1035156,5.737305,9.643555,-3.662109,94.86694,3.543091,-2.411499,0.7833333,-37.05,-49.64167,1
179269,0.041015630000000004,1.037598,0.1733398,0.6103516,34.42383,12.39014,95.74036,-0.3076172,2.521362,16.86667,1.541667,0.6166667,1
179529,-0.02832031,0.8383788999999999,0.02539063,-1.281738,-2.807617,-11.41357,95.17456,1.796265,2.488403,14.38333,-0.725,-1.116667,1
179759,0.04541016,1.5698239999999999,-0.06103516,-8.056641,-23.62061,-26.42822,96.38855,2.746582,0.736084,17.275,3.458333,0.225,1
180009,0.01904297,0.8818359,0.009277344,-9.887695,8.300781,12.26807,95.04272,4.141846,-2.136841,14.825,-0.9083334,-2.833333,1
180339,0.19384769999999998,1.258301,-0.2304688,4.02832,33.08105,5.126953,93.74084,3.284912,-0.7470703,17.2,2.358333,0.4583333,1
180629,-0.020996090000000002,0.8369141,0.05029297,-5.126953,-8.850098,-18.85986,93.60352,1.582031,3.696899,14.81667,-0.5,-1.566667,1
180949,-0.04150391,1.225586,-0.3706055,16.60156,-20.44678,-3.173828,93.20801,2.422485,1.016235,17.76667,3.633333,1.741667,1
181249,-0.01464844,0.8627929999999999,0.03662109,-3.662109,3.540039,15.31982,92.82898,4.603271,-1.636963,14.71667,-1.441667,-1.291667,1
181599,-0.001953125,1.478516,-0.1298828,2.746582,3.234863,14.83154,93.14758,3.218994,-2.796021,17.35833,2.233333,0.8083332999999999,1
181789,-0.03515625,0.9848633,0.1054688,-3.601074,-8.544922,-5.554199,93.6969,-0.1812744,0.604248,14.6,0.6000000000000001,-0.5333333,1
182009,-0.05078125,0.8110352,-0.06542969,15.86914,-16.23535,7.8125,92.01599,2.208252,-2.2796629999999998,1.366667,-38.43333,-49.53333,1
182249,-0.2075195,1.079102,0.2607422,10.86426,-24.6582,-28.68652,94.59778,5.229492,-6.674194,17.04167,2.341667,-0.55,1
182519,0.009277344,0.8510742,-0.0078125,-6.347656,6.591797,12.75635,93.43323,5.509644,-8.12439,14.741670000000001,-1.508333,-1.358333,1
182739,-0.01269531,1.44873,-0.078125,2.13623,10.55908,19.9585,93.6145,3.592529,-9.135132,17.775,2.958333,0.5333333,1
183019,0.009765625,0.8710937999999999,0.02148438,-5.065918,-14.16016,-14.52637,93.07617,2.27417,-8.12439,-1.308333,-38.54167,-50.60833,1
183289,-0.09082031,0.8388671999999999,-0.056640630000000004,15.68604,-13.24463,7.873535,91.71387,2.400513,-9.272461,19.40833,-7.183333,2.591667,1
183599,0.03466797,1.015137,0.12695309999999999,-2.624512,-4.02832,-11.59668,93.63647,6.569824,-14.44153,14.79167,0.2,-0.30000000000000004,1
183829,0.03662109,0.8315429999999999,-0.1318359,3.051758,-0.24414059999999999,-4.760742,92.24121,3.449707,-11.27747,-1.891667,-38.09167,-51.3,1
184119,-0.060546880000000004,1.211914,0.16699219999999998,14.52637,34.11865,12.81738,94.19678,2.757568,-5.734863,17.60833,2.483333,-0.40833329999999995,1
184339,-0.01025391,0.9003905999999999,-0.01806641,-7.263184,-13.30566,-7.751465,93.39478,3.922119,-5.982056,1.083333,-38.11666,-50.41667,1
184659,0.1303711,1.125977,0.05029297,4.577637,-35.27832,-20.69092,93.6145,4.883423,-11.00281,17.88333,3.608333,-1.158333,1
184989,-0.01074219,0.8950195,-0.03759766,-9.033203,-0.8544921999999999,9.094238,91.29639,4.735107,-11.61804,14.25,-1.3,-0.7583333,1
185269,-0.09082031,1.255859,-0.07373047,8.483887,12.45117,20.01953,93.17505,2.427979,-10.38757,15.88333,3.25,-1.125,1
185609,-0.03222656,0.8432617,0.03515625,1.586914,-6.530762,-13.67188,92.26318,2.9608149999999998,-7.278442,14.275,-0.6916667,-0.5833332999999999,1
186859,-0.06445313,0.8271484,-0.08251953000000001,-15.19775,-1.159668,6.04248,90.20874,3.02124,-4.053955,1.541667,-37.00834,-51.66667,1
187209,0.030273440000000002,1.006348,0.2758789,-1.89209,-37.29248,-20.93506,92.35107,6.004028,-8.838501,18.00833,1.75,0.6833332999999999,1
187419,0.02294922,0.9077147999999999,0.002929688,-1.7700200000000001,-1.708984,9.216309,92.13135,5.278931,-10.72266,14.30833,-1.25,-2.316667,1
187649,0.022460940000000002,1.38623,-0.04248047,10.49805,35.7666,20.62988,92.34009,4.3396,-7.970581,1.058333,-37.3,-51.25834,1
187889,-0.02441406,1.008301,0.09375000000000001,4.150391,-22.09473,-17.33398,93.34534,1.521606,-4.822998,14.866670000000001,0.1416667,-0.4333333,1
188159,0.002441406,0.8413086,-0.09863281,-9.277344,-9.155273,1.953125,91.54907,3.955078,-9.102173,16.025,-1.3,2.0,1
188389,-0.1987305,0.9741211,0.2104492,2.868652,-37.10938,-14.22119,93.14209,5.657959,-14.31519,17.05833,2.883333,-1.183333,1
188639,0.01269531,0.8647461,0.02734375,-4.821777,13.91602,15.625,91.35681,5.608521,-15.07874,14.25833,-2.483333,-0.8416665999999999,1
188869,-0.1196289,1.509277,-0.007324219000000001,5.67627,24.29199,28.19824,91.91162,4.284668,-13.60657,-2.675,-36.66667,-52.26667,1
189139,-0.009765625,0.9829102,0.11669919999999999,-2.197266,-1.098633,-11.65771,92.10388,1.07666,-9.73938,14.625,0.6333333,0.1083333,1
189389,-0.1333008,0.9384766,-0.05566406,12.3291,-19.83643,7.019043,91.18103,2.6202389999999998,-11.93665,-3.0,-36.3,-52.375,1
189689,0.004394531,1.044922,0.1254883,-4.699707,11.41357,10.31494,91.88965,7.580566,-16.43005,14.33333,0.2083333,-0.25,1
189989,0.1362305,1.093262,-0.04833984,6.652832,5.737305,-1.098633,91.31836,5.784302,-16.2323,-2.55,-35.20833,-53.71667,1
190279,0.02001953,0.9458008,0.08886719,-6.04248,2.990723,-16.78467,91.96106,2.026978,-9.596558,-0.9166667,-35.66667,-52.84167,1
190569,-0.08544922,0.8105469,-0.01660156,-11.1084,7.568359,1.89209,88.99475,3.834229,-8.701172,18.79167,-1.258333,1.291667,1
190809,0.0078125,1.128418,0.24462889999999998,-5.187988,-19.89746,-12.02393,91.03271,6.767578,-11.99158,16.34167,2.058333,-0.45,1
191119,-0.002929688,0.8442383,-0.01318359,-14.52637,-20.93506,-6.286621,87.49512,4.696655,-14.50745,18.71667,-3.475,1.9000000000000001,1
191459,-0.1308594,1.071777,0.1445313,1.464844,37.10938,8.544922,91.03271,1.274414,-9.497681,15.55,0.975,0.325,1
191649,-0.05761719,0.8774413999999999,-0.008300781,-8.666992,-9.94873,-3.967285,90.67566,3.88916,-10.71167,14.56667,-0.48333329999999997,0.525,1
191849,-0.0234375,1.135742,-0.31738279999999996,14.22119,-7.080078,-5.7983400000000005,91.10413,3.619995,-13.45276,17.475,2.283333,1.666667,1
192049,-0.00390625,1.001953,0.10693359999999999,-1.281738,-5.065918,-7.8125,91.49414,7.218018,-19.35242,14.91667,0.3916667,-1.0,1
192269,0.07958984,0.8515625,-0.056640630000000004,-14.5874,0.06103516,1.342773,89.48364,4.8614500000000005,-20.34668,15.25,-1.8666669999999999,0.8416665999999999,1
192469,0.04394531,0.965332,0.1298828,3.967285,20.1416,15.13672,92.53784,3.971558,-13.95813,-1.8333329999999999,-35.71667,-50.91667,1
192729,0.001464844,0.8613280999999999,0.002929688,-5.615234,-14.83154,-10.68115,91.50513,4.553833,-15.39185,14.5,-1.025,-1.141667,1
193009,-0.2666016,1.294434,-0.03710938,9.643555,-18.12744,-19.59229,91.91162,5.317383,-15.94116,-1.9916669999999999,-35.29167,-51.3,1
193309,0.03662109,0.9545897999999999,0.03417969,-6.896973,-18.55469,3.540039,91.46667,6.652222,-19.48425,14.33333,-1.108333,-1.441667,1
193609,0.1079102,1.20166,0.08886719,12.08496,50.53711,10.80322,92.53235,5.251465,-13.7439,-0.7416667,-35.6,-49.65833,1
193929,-0.06005859,0.9008788999999999,-0.02392578,-10.74219,-3.417969,-3.78418,89.74182,4.389038,-10.66772,15.65,-0.7583333,-0.125,1
194229,-0.07226563,1.040527,0.11865229999999999,1.281738,-34.60693,-18.55469,91.22498,5.72937,-14.47998,18.20833,1.691667,-0.4166667,1
194529,0.0234375,0.8935546999999999,0.01953125,-11.2915,6.774902,1.953125,89.47815,4.910889,-15.25452,15.90833,-1.65,0.5583332999999999,1
194849,0.09619141,1.064941,0.15087889999999998,7.324219,23.80371,19.04297,91.5271,3.158569,-9.30542,17.93333,1.016667,0.17500000000000002,1
195129,-0.08789063,0.8920897999999999,0.007324219000000001,-10.49805,1.525879,-2.746582,90.18127,3.916626,-6.251221,16.10833,-1.216667,-0.2666667,1
195479,0.05419922,1.102051,0.16650389999999998,0.0,-41.01563,-19.40918,90.81299,5.872192,-10.73364,18.49167,1.05,-0.4166667,1
195749,0.1132813,0.8911133,-0.011230470000000001,-9.82666,-7.019043,6.774902,88.18726,4.740601,-16.38062,16.375,-2.233333,0.45,1
196119,0.02392578,1.036133,0.1015625,-3.417969,-5.737305,6.835938,89.73083,2.911377,-10.48096,14.85833,1.125,0.008333334000000001,1
196409,-0.04345703,0.9038086,-0.030273440000000002,-0.9765625,13.5498,-6.04248,88.9563,4.086914,-10.24475,15.26667,-1.158333,1.525,1
196619,-0.1098633,1.020508,-0.1459961,24.35303,-13.73291,-4.821777,92.02148,4.658203,-10.38757,19.44167,1.375,1.125,1
196829,0.04345703,0.8779296999999999,-0.0078125,-5.615234,-18.61572,10.25391,92.62573,6.514893,-13.87573,1.416667,-32.4,-51.03333,1
197069,0.06103516,0.8974609,-0.11621089999999999,1.6479489999999999,4.638672,-2.929688,91.54358,5.306396,-15.0293,22.41667,0.7916667,0.36666669999999996,1
197319,0.07177734,1.012695,0.1191406,-0.3662109,39.48975,20.20264,93.25195,4.064941,-9.541626,18.4,1.091667,0.1166667,1
197539,-0.11474609999999999,0.8701171999999999,-0.046875,-10.13184,16.17432,-5.92041,91.50513,3.587036,-4.262695,15.29167,-1.2,0.9833333999999999,1
197839,-0.22070309999999999,1.002441,0.03125,8.483887,-44.86084,-16.17432,93.74634,5.344849,-8.393555,2.75,-32.04167,-52.54167,1
198139,0.06152344,0.8608397999999999,-0.03759766,-13.61084,-10.25391,9.460449,91.3678,4.603271,-15.52917,15.70833,-1.558333,0.1916667,1
198459,0.1054688,1.202148,-0.24072269999999998,3.112793,21.85059,1.525879,91.26892,4.130859,-15.65002,17.525,2.341667,1.341667,1
198689,-0.04345703,0.902832,0.06982422,0.3662109,12.02393,-15.44189,92.60925,2.807007,-8.009033,14.741670000000001,0.5083333,-0.625,1
198959,0.01464844,1.049805,-0.1796875,5.310059,-1.8310549999999999,-6.530762,92.10388,4.367065,-6.784058,19.875,1.408333,0.35833329999999997,1
199259,-0.007324219000000001,0.9130859,0.03613281,-8.666992,-10.49805,18.43262,91.47766,6.558838,-10.72815,-0.325,-34.35,-53.23333,1
199569,0.06738281,1.121582,-0.2695313,7.263184,8.911133,1.586914,90.73059,4.77356,-14.02405,20.81667,3.191667,1.375,1
199889,-0.1499023,0.859375,0.030273440000000002,2.197266,10.37598,-18.49365,93.41675,1.834717,-2.351074,15.725,-0.2916667,-1.0,1
200189,-0.02294922,0.9931641,-0.1000977,3.2958979999999998,-17.76123,0.9155272999999999,92.26868,2.911377,-7.069702,23.50833,3.125,-2.733333,1
200519,0.05126953,0.9873046999999999,0.08740234,0.9765625,24.29199,16.47949,92.8125,5.053711,-11.30493,15.94167,-0.5416667,-0.1,1
200819,0.09326172,1.075684,-0.1171875,7.995605,13.5498,-5.554199,93.65845,3.026733,-5.493164,23.33333,1.641667,0.6333333,1
201069,-0.03222656,1.074707,0.01416016,0.9155272999999999,-9.094238,-16.17432,95.93262,0.6152344,4.202271,14.63333,-0.2916667,-0.85,1
201329,-0.02148438,0.8310546999999999,-0.06445313,-20.26367,-2.441406,-3.601074,93.84521,3.449707,1.834717,15.425,-0.7416667,0.8916666,1
201539,-0.004394531,1.090332,0.2641602,10.19287,-10.55908,-15.99121,94.71313,3.982544,0.3900146,6.266667,-37.825,-48.66667,1
201789,0.08203125,0.9038086,0.01416016,3.051758,19.53125,14.34326,95.36682,4.081421,0.6701659999999999,14.8,-1.366667,-1.6,1
202059,0.020996090000000002,0.8388671999999999,-0.14697269999999998,3.967285,10.43701,-7.263184,94.71313,2.37854,4.5593259999999995,17.975,-5.075,0.3333333,1
202279,-0.08935547,1.062988,0.11083979999999999,3.417969,37.8418,6.835938,95.89417,-0.5767822,17.12219,11.775,-39.35833,-41.40833,1
202549,-0.04345703,0.8071288999999999,-0.04150391,-3.90625,-11.90186,6.591797,93.95508,2.581787,13.95264,11.775,-38.48333,-43.525,1
203869,0.06103516,0.8789062999999999,-0.1455078,-5.371094,-31.31104,7.995605,94.06494,1.741333,17.95715,12.5,-38.99166,-41.38334,1
204149,0.05371094,1.249512,0.15820309999999999,2.746582,-14.5874,-10.37598,95.65796,0.7305908,15.30396,20.0,2.391667,0.6833332999999999,1
204389,-0.008789063,0.9106445,0.02832031,-3.78418,97.65625,4.211426,95.75134,-1.389771,35.10681,16.775,-40.4,-28.96667,1
204709,-0.006835938000000001,0.8989258,-0.1191406,0.9155272999999999,105.4688,-8.850098,93.66943,-1.950073,63.06702,17.25833,0.85,-1.083333,1
204989,-0.18652339999999998,0.9277344,0.06152344,-5.554199,80.50537,-0.4882813,92.96082,-2.427979,91.00525,11.6,-38.81667,0.8250000000000001,1
205269,-0.12451169999999999,0.9052734,-0.03808594,-15.07568,80.81055,-9.033203,89.6759,-2.334595,107.9352,16.56667,-1.666667,-0.7916667,1
205519,-0.1079102,1.024414,-0.09326172,0.4882813,-1.586914,20.38574,89.57703,-3.065186,122.569,20.675,-1.466667,0.8250000000000001,1
205819,0.07568359,1.105957,0.07519531,9.94873,48.82813,8.544922,92.76855,-4.526367,121.2067,16.35833,0.525,0.25,1
206219,0.01025391,0.9301758,-0.1616211,12.57324,82.39746,-8.605957,90.85144,-7.619019,150.7159,19.65833,0.4,1.666667,1
206469,0.02050781,1.094238,0.1308594,5.432129,95.58105,0.7324219,91.05469,-8.267212,166.3495,17.68333,0.9083334,0.6083333,1
206729,-0.1323242,0.8647461,-0.04296875,-8.056641,54.99268,-5.615234,87.52258,-5.31189,-170.7111,15.36667,-1.5,0.15833329999999998,1
206959,-0.03076172,1.01123,-0.1196289,3.112793,-4.821777,0.9765625,88.16528,-5.048218,-167.4261,20.86667,1.025,0.0,1
207179,0.20214839999999998,1.009277,0.20996089999999998,-2.685547,-17.33398,-13.5498,89.61548,-2.537842,-168.4698,17.50833,2.258333,0.1833333,1
207379,-0.0034179690000000003,0.9223633,-0.10693359999999999,-5.249023,21.3623,0.0,88.84094,-3.817749,-163.0426,-41.10833,-37.56667,-1.591667,1
207639,0.19042969999999998,1.20459,-0.21728519999999998,-4.333496,50.78125,-5.004883,89.24744,-3.043213,-157.8241,18.725,1.575,1.766667,1
207919,-0.06982422,0.9575195,0.06738281,1.89209,4.089355,-2.01416,89.599,-4.866943,-151.2378,15.2,0.4583333,0.525,1
208159,-0.04296875,0.8476562999999999,-0.03417969,1.89209,-29.11377,6.835938,88.50037,-2.938843,-153.2648,17.39167,-2.891667,0.6333333,1
208419,0.1235352,1.039551,0.07519531,-4.150391,-20.50781,-12.3291,90.5603,-0.302124,-163.125,15.30833,0.225,-0.325,1
208739,0.007324219000000001,0.8706054999999999,-0.1118164,-1.098633,15.68604,-8.850098,88.33557,-1.224976,-161.6034,17.63333,-2.5,-0.24166669999999998,1
209009,0.05175781,1.106445,0.1435547,1.342773,33.56934,9.643555,88.97278,-3.147583,-150.1666,15.73333,0.9500000000000001,-0.4666667,1
209329,-0.06152344,0.8481445,-0.05908203,-7.873535,-31.55518,1.342773,86.83594,-0.40649409999999997,-153.1219,-41.4,-37.975,-4.825,1
209599,0.27099609999999996,1.129883,0.5366211,-13.18359,2.01416,-47.79053,89.5166,-0.3405762,-165.2838,-37.15,-38.04167,1.291667,1
209929,-0.002929688,0.8422852,-0.01074219,-16.78467,11.16943,1.220703,89.04968,-0.5822754,-167.3108,14.70833,-0.44166669999999997,0.1083333,1
210289,0.008300781,1.152344,0.1679688,15.07568,14.4043,20.75195,89.9231,-0.9393311,-161.1694,17.7,1.891667,0.01666667,1
210559,-0.028808590000000002,0.9179687999999999,-0.02050781,-4.943848,-24.04785,-5.493164,90.46143000000001,-1.164551,-162.6636,14.68333,-1.008333,-1.041667,1
210899,-0.01757813,1.393066,-0.2988281,8.728026999999999,-45.47119,-15.625,91.18652,-1.604004,-170.4144,16.79167,3.166667,1.3333329999999999,1
211109,-0.02587891,0.9838867,0.1254883,-1.586914,-15.50293,-0.3662109,90.53284,1.713867,-176.2317,15.44167,-0.25,-0.24166669999999998,1
211319,0.008789063,0.8530272999999999,-0.09667969,-8.056641,-5.981445,2.990723,89.36279,-0.637207,-176.7261,15.34167,-1.8333329999999999,0.7583333,1
211529,0.14306639999999998,1.125488,-0.3286133,4.089355,37.53662,-2.197266,90.33508,0.1593018,-174.4244,18.85833,3.85,0.9083334,1
211739,-0.05078125,0.9536133,-0.02392578,3.601074,-19.28711,-12.39014,91.58752,-2.70813,-169.9805,-35.43333,-34.91667,6.358333,1
211999,-0.048828130000000004,0.8320312999999999,-0.08203125,-2.197266,-23.80371,7.873535,90.91736,-2.329102,-173.1665,17.30833,-3.041667,0.8166667,1
212249,0.05322266,1.189941,0.1835938,4.760742,-25.63477,-17.15088,92.60376,0.8239746,178.3685,16.70833,0.8083332999999999,-0.4166667,1
212539,0.006835938000000001,0.8354492,-0.121582,-15.07568,1.525879,-6.408691,89.8407,-0.7141113,-179.2639,-29.65833,-35.825,7.4,1
212839,0.1132813,0.9946288999999999,0.1694336,7.629395,31.67725,15.31982,90.68665,-3.394775,-170.0574,-36.06667,-34.39167,4.341667,1
213119,-0.03271484,0.9111328,0.01367188,-3.2958979999999998,-23.49854,-11.35254,90.97778,-1.889648,-171.6119,14.93333,-0.5916667,-1.475,1
213369,-0.12451169999999999,1.225098,-0.3740234,10.68115,-31.86035,-4.211426,92.07092,-2.351074,-179.4232,18.10833,3.0,0.875,1
213669,0.0009765625,0.8793945,0.0009765625,-9.765625,-4.577637,7.93457,91.2085,-0.06591797,175.3857,14.06667,-1.141667,-1.925,1
213989,0.03955078,1.375,-0.09960938,2.990723,32.34863,17.51709,90.09338,0.054931640000000004,174.0619,16.55,2.383333,1.033333,1
214279,-0.03662109,0.8691405999999999,0.02148438,-4.089355,-19.28711,-14.95361,90.87341,-2.576294,176.7096,14.38333,-1.383333,-0.5583332999999999,1
214649,-0.1201172,1.111328,0.184082,4.699707,-10.62012,-26.36719,92.06543,-1.203003,171.1945,-24.45833,-34.60833,8.95,1
214979,0.015625,0.8642578,-0.06005859,-5.615234,-2.563477,-0.793457,90.95581,-1.5051269999999999,171.1121,-24.51667,-34.88334,8.241667,1
215369,-0.07861328000000001,1.003906,0.08300781,2.258301,5.981445,7.080078,90.5658,-4.421997,177.9126,-29.65,-34.775,6.325,1
215629,-0.04931641,0.8740234,-0.005371094000000001,-5.004883,-14.09912,-1.953125,90.45593,-2.631226,175.6,14.425,-1.275,1.75,1
215849,0.17871089999999998,1.199707,0.25439449999999997,-0.42724609999999996,-14.46533,-23.98682,91.96655,-2.389526,170.8813,-25.13333,-34.90833,8.566667,1
216099,0.04736328,0.8896484,0.004394531,-2.258301,9.521484,9.155273,92.08191,-0.9832763999999999,169.5905,15.475,-1.041667,-1.258333,1
216359,0.04736328,0.8144530999999999,-0.1054688,-6.896973,4.699707,-8.972168,90.20874,-1.796265,170.4584,17.075,-2.916667,-0.625,1
216589,-0.17431639999999998,1.155762,0.08886719,3.601074,6.286621,9.460449,91.08765,-4.987793,179.1321,15.10833,0.9666665999999999,-0.325,1
216849,0.005859375,0.8671875,0.03808594,-9.338379,-15.68604,-5.004883,90.39001,-3.010254,175.4791,15.20833,-0.8083332999999999,-0.5916667,1
217079,0.2670898,1.254395,0.1342773,-0.6103516,-38.94043,-24.71924,91.39526,-2.658691,169.9475,-24.025,-36.63334,8.666667,1
217339,0.006347656,0.9521484,0.03173828,-1.403809,1.342773,10.31494,91.89514,0.01098633,165.6903,15.03333,-0.8333332999999999,-0.875,1
217599,0.06640625,1.068848,-0.1601563,0.1831055,12.26807,5.004883,91.07666,-1.571045,166.5472,21.09167,1.216667,1.25,1
217899,-0.01318359,0.9331054999999999,0.06542969,1.525879,-10.80322,-14.46533,91.26892,-4.801025,173.172,15.19167,-0.15,-1.15,1
218189,0.07421875,1.05957,-0.1621094,11.96289,-21.72852,-4.272461,92.38403,-3.647461,166.1792,-23.60833,-37.6,10.44167,1
218499,0.05957031,0.9155272999999999,-0.004394531,-6.896973,-0.3662109,9.70459,92.51038,-0.6152344,163.3942,15.0,-1.0,-1.9916669999999999,1
218839,-0.09228516,1.173828,-0.22949219999999998,0.42724609999999996,19.04297,10.00977,90.21973,-1.757813,166.0364,17.36667,2.225,0.6416666999999999,1
219119,-0.10058589999999999,0.9477538999999999,0.04736328,3.417969,7.93457,-6.530762,90.83496,-4.779053,172.4963,15.025,-0.9416667,-1.025,1
219449,-0.1948242,1.14502,-0.3208008,14.64844,-24.90234,-5.67627,92.50488,-4.729614,166.9592,18.675,2.25,0.36666669999999996,1
219709,0.0859375,0.8950195,0.05712891,-10.86426,0.6103516,3.967285,92.0874,-1.94458,160.5267,14.075,-1.116667,-1.308333,1
220079,0.01367188,0.9360352,0.11669919999999999,5.371094,23.13232,16.41846,90.78552,-4.586792,171.2439,-26.55,-38.175,10.46667,1
221299,0.125,0.9067383,0.1484375,1.342773,20.69092,20.81299,92.95532,-4.317627,174.743,-27.275,-35.725,10.41667,1
221549,-0.02392578,0.934082,-0.03222656,0.6103516,0.24414059999999999,-10.86426,92.92236,-4.350586,176.402,13.91667,-1.0,-1.875,1
221779,-0.03613281,0.8784179999999999,-0.15478519999999998,18.06641,-16.05225,14.22119,93.02673,-4.081421,174.8364,21.64167,-5.941667,0.5833332999999999,1
221999,-0.2568359,1.055176,0.159668,15.07568,-7.873535,-15.31982,95.39978,-1.636963,172.359,17.69167,0.8583333999999999,0.1,1
222219,0.03125,0.8525391,-0.1079102,-10.49805,-1.037598,-2.807617,94.1748,-1.71936,174.4849,17.38333,-2.875,-0.5333333,1
222499,-0.06347656,1.000977,0.10888669999999999,-0.1831055,26.55029,17.8833,94.85046,-4.932861,179.176,-29.36667,-35.53333,9.291667,1
222799,-0.04589844,0.8945312999999999,-0.006347656,-12.26807,-29.84619,-10.98633,94.4165,-3.762817,175.9241,13.075,-1.05,-1.3,1
223029,0.1235352,1.4394529999999999,0.004882813000000001,4.150391,-16.96777,-19.77539,95.25696,-3.526611,169.7498,17.50833,2.7,-0.2166667,1
223319,0.04199219,0.8857421999999999,-0.03417969,-13.73291,6.04248,7.507324,94.05396,-1.636963,168.0798,-22.39167,-37.80833,10.43333,1
223609,0.03369141,1.222656,0.11083979999999999,19.47021,31.00586,32.53174,93.49365,-3.427734,174.4958,-27.425,-37.70833,9.141666,1
223889,-0.07958984,0.9707030999999999,0.0078125,1.953125,-17.45605,-12.08496,94.56482,-4.202271,175.8417,16.175,-0.6666667,-2.033333,1
224119,0.011230470000000001,0.9916992,-0.171875,3.540039,-4.455566,-0.5493163999999999,93.7738,-4.059448,170.4639,-25.29167,-37.80833,10.78333,1
224409,0.2304688,1.112305,0.09619141,2.197266,-6.591797,-14.28223,94.77356,-1.032715,166.778,15.29167,0.30000000000000004,-0.4666667,1
224689,0.0703125,0.8920897999999999,-0.1308594,-4.394531,11.65771,-11.59668,92.21375,-2.400513,173.0731,18.61667,-5.158333,1.341667,1
224959,-0.125,1.069336,0.02832031,10.00977,1.708984,2.197266,94.22424,-5.822754,-179.8187,15.76667,-0.24166669999999998,0.01666667,1
225299,-0.052734380000000004,0.9716796999999999,-0.1572266,4.455566,-17.76123,7.8125,94.24072,-4.108887,177.3688,24.33333,-2.683333,-1.016667,1
225499,-0.16699219999999998,1.022949,0.1289063,9.460449,-30.88379,-20.75195,94.92737,-1.049194,175.8746,17.675,0.4166667,0.875,1
225709,0.030273440000000002,0.828125,-0.06835938,-12.87842,-1.037598,-3.234863,94.36707,-1.071167,176.0669,-24.70833,-37.38334,10.675,1
225959,-0.024902340000000002,1.3354489999999999,0.03076172,5.737305,54.74854,18.37158,94.52087,-1.395264,178.429,16.825,1.75,1.008333,1
226219,-0.05371094,1.07666,0.004882813000000001,9.765625,-16.47949,-8.300781,95.87219,-5.317383,-177.583,14.88333,-0.1083333,-1.191667,1
226429,-0.08105469,0.9951171999999999,-0.08300781,1.403809,-19.04297,4.638672,94.47693,-3.773804,176.8909,-26.84167,-36.49166,10.09167,1
226689,-0.1040039,1.021484,0.18945309999999999,5.92041,-7.873535,-31.06689,94.74609,-0.7250977,172.9413,17.11667,1.0,0.48333329999999997,1
226929,0.02685547,0.8774413999999999,-0.04248047,-4.882813,19.34814,6.896973,94.34509,-0.5767822,173.7488,14.89167,-2.358333,-1.675,1
227149,0.02685547,1.515625,0.07519531,0.4882813,48.76709,29.23584,93.83972,-1.159058,177.3413,16.275,2.683333,0.6833332999999999,1
227459,-0.022460940000000002,0.8901367,-0.024902340000000002,-1.708984,-26.9165,-9.155273,95.33386,-3.850708,179.3408,-27.29167,-36.08333,9.858334,1
227769,-0.2084961,1.397461,-0.29345699999999997,-5.615234,-38.20801,-13.12256,95.92163,-3.790283,176.1273,17.325,2.566667,0.85,1
228059,0.03417969,0.8535155999999999,-0.04638672,-5.615234,23.25439,8.483887,94.66919,-1.230469,174.2102,-23.84167,-37.35,9.425,1
228369,0.009765625,1.130371,-0.1137695,-1.8310549999999999,16.17432,-4.02832,94.36157,-1.060181,177.6489,21.91667,-0.03333333,1.175,1
228599,-0.006347656,1.010742,0.02587891,4.943848,-14.52637,-16.90674,94.9054,-5.158081,-178.1323,14.725,-0.49166669999999996,-0.7000000000000001,1
228889,-0.006835938000000001,1.025879,-0.07568359,3.356934,-14.16016,-1.8310549999999999,94.80103,-4.504395,177.5336,22.6,1.9583329999999999,-1.033333,1
229199,0.04589844,0.9721679999999999,0.04003906,-3.90625,21.05713,15.31982,94.68567,-1.032715,174.3805,14.93333,-0.5750000000000001,-1.75,1
229499,-0.078125,0.9418945,-0.1713867,1.89209,3.356934,-4.272461,92.68066,-1.691895,178.5938,20.625,3.6,1.033333,1
229839,-0.01904297,0.9101562999999999,0.044921880000000004,-7.019043,-27.28271,-13.18359,93.6145,-4.334106,-178.7036,14.63333,-0.04166667,-1.05,1
230069,0.1386719,1.04248,-0.2397461,10.43701,-6.591797,-4.577637,93.55957,-3.746338,175.8417,-24.95,-37.83333,9.941667,1
230309,0.11425779999999999,1.052734,0.09521484000000001,0.24414059999999999,-2.319336,-9.58252,94.16382,0.005493164,171.8317,14.95833,0.31666669999999997,-0.9166667,1
230549,0.030273440000000002,0.9062500000000001,-0.09716797,5.310059,-5.981445,-3.540039,91.98303,-1.318359,172.2107,-21.76667,-38.5,9.508333,1
230789,0.10498049999999999,1.023438,0.1196289,10.37598,21.78955,20.1416,93.22998,-3.6859129999999998,177.171,18.95833,0.675,1.8666669999999999,1
231059,-0.02685547,0.8847655999999999,-0.007324219000000001,-4.821777,-19.16504,-12.08496,94.1748,-4.405518,176.2756,13.75,-0.6583333,-2.233333,1
231289,0.009277344,1.4033200000000001,-0.1318359,3.723145,-34.17969,-14.70947,94.18579,-3.916626,172.5677,-22.01667,-36.00834,11.43333,1
231559,0.03222656,0.8930663999999999,-0.03466797,-7.446289,19.04297,6.225586,93.56506,-1.636963,171.3812,-21.48333,-36.23333,10.78333,1
231859,0.07470703000000001,1.007813,-0.1103516,-1.708984,3.417969,-6.530762,92.81799,-1.620483,172.2656,23.20833,-2.791667,0.2166667,1
232119,0.08935547,1.083496,0.03955078,0.6103516,-15.56396,-1.953125,93.79578,-4.625244,177.5446,14.65833,0.1333333,-1.525,1
232379,-0.01904297,0.8959961,-0.14306639999999998,9.82666,-9.765625,8.056641,91.40076,-3.065186,175.6274,-24.20833,-36.75,8.291667,1
232679,-0.11279299999999999,1.102539,0.1772461,9.94873,-29.90723,-22.46094,93.60901,-1.307373,171.5131,17.66667,1.5833329999999999,-0.09166667,1
232919,-0.002441406,0.8242187999999999,-0.1293945,-10.62012,13.24463,-4.272461,92.20276,-1.829224,175.0177,17.35,-1.275,0.03333333,1
233209,0.05957031,0.9257812999999999,0.1040039,6.835938,33.5083,17.82227,93.10364,-3.361816,-178.8354,18.68333,1.066667,0.075,1
233549,-0.03808594,0.7929687999999999,-0.01025391,-9.82666,-14.16016,0.0,90.87891,-2.25769,178.9178,15.09167,-2.325,0.24166669999999998,1
233819,-0.1791992,1.066895,0.17480469999999998,12.3291,-28.07617,-21.3623,91.73035,-0.6097412,172.0404,16.35833,2.491667,-0.24166669999999998,1
234179,0.07373047,1.05127,-0.1044922,1.525879,14.83154,-7.995605,92.19177,-0.45593259999999997,175.3088,-21.43333,-37.11666,7.508333,1
234409,0.06396484,0.9526367,0.15625,6.286621,36.8042,26.18408,91.84021,-4.400024,-179.5111,18.10833,1.125,0.625,1
234699,-0.0546875,0.8457030999999999,-0.004394531,1.220703,-24.6582,-12.93945,92.14233,-3.334351,179.3848,14.025,-1.266667,-1.375,1
234939,-0.1098633,1.441895,-0.3842773,14.03809,-24.84131,-19.34814,95.02625,-2.8125,172.8094,18.775,2.858333,1.141667,1
235169,-0.07617188,0.9907227,0.09619141,-11.65771,10.92529,7.629395,93.43872,1.263428,171.4417,13.866670000000001,-0.8166667,-1.15,1
235379,-0.0009765625,0.8222655999999999,-0.1416016,-19.53125,4.516602,-5.859375,91.29639,-0.4614258,174.1333,19.15,-1.683333,0.1416667,1
235609,0.03662109,1.02832,0.1640625,-3.723145,41.93115,15.01465,92.34558,-4.9493409999999995,179.989,15.81667,1.0,0.1333333,1
235909,-0.06298828000000001,0.8374022999999999,-0.001953125,-5.310059,-27.09961,-17.45605,91.48315,-3.24646,179.3243,13.73333,-1.058333,-1.591667,1
236159,0.1123047,1.354004,0.206543,-11.2915,-36.8042,-32.65381,92.54883,-1.713867,173.2983,19.4,2.766667,-1.15,1
236399,-0.004394531,0.8354492,-0.08349609,-5.67627,0.9155272999999999,6.347656,90.62073,-1.010742,173.2709,-19.76667,-37.31667,8.416667,1
236699,0.05615234,1.150391,-0.4130859,-5.7983400000000005,18.37158,2.868652,91.62598,-0.6866455,174.0234,17.35,3.833333,2.166667,1
237929,0.32519529999999996,1.029297,0.1801758,6.164551,-6.103516,22.82715,92.37854,-3.460693,175.6879,-21.625,-35.8,8.5,1
238219,-0.03759766,0.8178711,-0.078125,-15.07568,-42.96875,3.173828,91.24695,-1.027222,168.3875,-16.04167,-36.475,8.308333,1
238569,-0.07910156,1.1166989999999999,0.2436523,1.220703,-29.23584,-24.35303,93.02673,0.7196045,158.5052,16.9,1.758333,-0.35000000000000003,1
238839,0.02148438,0.8505859,0.007324219000000001,-4.577637,12.75635,9.155273,91.99951,-0.1318359,158.7305,14.675,-1.075,-1.9583329999999999,1
239149,0.16259769999999998,0.9555663999999999,0.184082,3.845215,17.08984,16.8457,92.91687,-3.773804,167.8052,17.00833,0.875,0.35833329999999997,1
239449,-0.056640630000000004,0.8217772999999999,-0.09179688,-9.277344,-20.93506,2.197266,92.46094,-1.104126,163.4491,19.00833,-2.241667,2.341667,1
239819,-0.005859375,0.980957,0.06005859,-6.04248,10.55908,16.47949,93.28491,1.955566,157.7362,-9.225,-36.0,9.05,1
240059,0.00390625,0.7851562999999999,-0.09863281,-4.699707,-5.126953,-6.9580079999999995,91.17004,0.5603026999999999,159.2468,18.88333,-2.008333,0.6916667,1
240319,-0.1367188,1.275879,0.1875,14.5874,33.56934,41.74805,93.11462,-1.653442,162.6031,20.15833,2.7,0.2083333,1
240539,-0.004394531,0.8032227,0.0004882813,-4.333496,-35.52246,-5.67627,92.58728,-1.7028809999999999,158.7909,-11.75833,-36.60833,9.058333,1
240779,0.08740234,1.05127,-0.2875977,14.46533,-15.50293,-8.544922,94.86145,-2.559814,153.3691,21.96667,7.033333,-1.541667,1
241019,0.2109375,1.123047,0.1210938,-6.9580079999999995,3.4790039999999998,-16.60156,94.83948,1.8731689999999999,150.6445,14.76667,-0.2916667,-1.291667,1
241249,0.0625,0.8310546999999999,-0.140625,6.591797,3.967285,-14.83154,93.00476,0.4779053,153.7207,21.80833,-5.625,-0.1166667,1
241549,-0.03222656,1.031738,0.08203125,-3.417969,-19.9585,-11.71875,93.51013,-3.900146,158.2086,-11.60833,-35.90833,9.25,1
241849,-0.03955078,1.123535,-0.11279299999999999,24.90234,-30.94482,3.967285,93.47717,-1.889648,150.8148,23.325,0.625,-0.31666669999999997,1
242159,0.01953125,0.8857421999999999,0.03271484,0.9765625,27.64893,28.07617,94.80103,3.03772,146.2335,-3.191667,-34.88334,9.208333,1
242449,-0.1196289,1.126953,-0.2617188,2.685547,16.47949,-0.42724609999999996,94.01001,1.708374,149.502,-5.0,-35.65,8.533334,1
242729,-0.09472656,1.065918,0.1040039,-6.896973,-20.75195,6.347656,94.3396,-2.779541,153.1494,13.18333,0.3916667,-0.6416666999999999,1
242969,0.006835938000000001,0.7221679999999999,-0.04980469,12.63428,-23.68164,10.92529,92.62024,-0.49438479999999996,143.5968,-3.716667,-36.35833,7.1,1
243279,-0.03173828,0.9838867,0.1259766,-3.601074,2.197266,1.586914,94.59229,3.933105,138.3948,13.1,0.3083333,-0.9833333999999999,1
243589,0.006835938000000001,0.9824219,-0.10498049999999999,4.760742,18.49365,-10.62012,92.52686,2.6477049999999998,138.7683,25.68333,1.033333,0.8166667,1
243889,-0.09082031,0.9980469,0.056640630000000004,6.225586,-15.80811,-15.13672,94.51538,-1.593018,144.9481,14.125,0.5583332999999999,-0.8916666,1
244259,0.22851559999999999,1.401855,0.18603519999999998,-5.554199,-17.57813,-30.2124,96.08093,0.5548096,130.3418,1.758333,-36.41667,6.641667,1
244509,0.04443359,0.9287109,-0.002929688,-8.422852,15.19775,12.08496,95.37781,3.3673100000000002,129.4244,14.39167,-0.9416667,-1.525,1
244769,-0.1054688,1.083984,-0.315918,4.516602,21.78955,2.13623,94.43298,3.048706,132.5885,1.075,-37.28333,6.383333,1
245009,-0.09570313,1.129395,0.052734380000000004,8.422852,-10.0708,-3.417969,95.92712,-2.109375,135.6866,15.13333,0.31666669999999997,-0.31666669999999997,1
245249,-0.04345703,0.8339844,-0.046875,-17.21191,-25.6958,-2.746582,94.4165,0.9008788999999999,130.8691,13.55,-2.208333,2.583333,1
245469,-0.3071289,0.9550780999999999,0.1708984,9.70459,-15.74707,-26.00098,94.823,3.334351,123.8873,16.375,2.283333,-1.4,1
245759,0.04345703,0.8227538999999999,-0.011230470000000001,-4.943848,22.52197,12.45117,92.84546,3.526611,124.7882,14.125,-2.566667,-1.975,1
245989,0.33300779999999996,1.555176,0.1733398,-11.84082,59.14307,5.981445,93.22998,2.900391,128.4576,1.441667,-38.16667,6.533333,1
246259,-0.05419922,0.8520508,0.02539063,-2.502441,-43.02979,-13.12256,94.021,2.087402,127.2217,3.566667,-37.71667,6.183333,1
246559,0.02832031,1.105469,-0.09863281,18.43262,-38.51318,0.7324219,93.71887,2.416992,118.5974,22.75833,6.175,-0.5416667,1
246819,0.0,0.8989258,0.03466797,-8.666992,0.5493163999999999,8.911133,94.43298,5.877686,114.3567,14.625,-0.7916667,-1.983333,1
247079,0.02294922,1.127441,-0.37207029999999996,8.300781,26.24512,2.624512,94.07593,5.009766,114.1589,10.33333,-35.73333,3.975,1
247379,-0.10498049999999999,1.110352,0.06787109,1.037598,-16.96777,-6.164551,95.45471,0.46691889999999997,117.345,14.36667,0.15833329999999998,-0.9666665999999999,1
247639,-0.07763672,0.9970703,-0.1171875,27.22168,-17.45605,6.103516,93.57605,2.675171,107.655,25.14167,-1.858333,0.30000000000000004,1
247909,-0.02001953,1.04248,0.0546875,-4.394531,5.7983400000000005,14.5874,94.38354,6.981812,103.6121,13.866670000000001,-0.6000000000000001,-1.15,1
248249,0.009765625,1.137695,-0.07958984,4.333496,12.02393,-0.6713867,92.69714,5.163574,105.0183,21.6,1.3333329999999999,1.85,1
248519,-0.06738281,0.8901367,0.02294922,-8.483887,-32.53174,-15.25879,93.48816,0.8294678,109.4019,13.55,0.7583333,-1.3,1
248879,0.1323242,1.099609,0.3930664,1.89209,-10.0708,-30.27344,92.8894,4.976807,99.18457,18.2,-32.76667,-2.85,1
249139,0.13134769999999998,0.8115234,-0.004394531,-10.13184,17.57813,11.1084,92.54883,6.333618,96.64673,14.25833,-1.508333,-1.466667,1
249399,0.06445313,0.8383788999999999,-0.14306639999999998,14.34326,8.239746,-11.1084,91.73035,5.509644,99.94812,24.64167,-2.383333,0.0,1
249589,0.06445313,0.8383788999999999,-0.14306639999999998,14.34326,8.239746,-11.1084,91.73035,5.509644,99.94812,18.29167,1.408333,-0.075,1
249819,-0.02734375,0.7792969,-0.048828130000000004,-12.51221,-33.75244,5.371094,90.29663,4.257202,92.26318,17.36667,-1.675,2.183333,1
250100,-0.24121089999999998,1.060059,0.1879883,3.723145,-18.79883,-16.72363,92.30164,6.086426,85.30884,16.65,1.341667,0.1833333,1
250419,0.006347656,0.8212891,-0.06542969,-10.00977,18.9209,-5.432129,90.66467,4.630737,87.24792,17.39167,-1.633333,-0.4166667,1
250699,0.005859375,1.0625,0.1464844,-2.380371,28.80859,13.61084,91.43921,1.411743,94.09241,16.73333,-33.525,-7.191667,1
251009,-0.08154297,0.8232421999999999,0.06494141,-6.9580079999999995,-18.06641,-9.460449,90.51086,2.515869,92.82898,14.40833,-0.9500000000000001,-0.9500000000000001,1
251259,0.08447266,1.308105,0.184082,-2.441406,-38.0249,-26.06201,91.15906,3.323364,85.83069,19.86667,3.283333,0.7166667,1
251529,0.08251953000000001,0.8706054999999999,0.002441406,-5.615234,10.68115,8.789063,90.49438,4.367065,82.55676,13.19167,-0.49166669999999996,-1.308333,1
251859,-0.1235352,1.239258,0.1601563,-1.586914,31.18896,21.11816,90.99426,3.55957,91.71387,17.675,2.008333,0.48333329999999997,1
252119,-0.03515625,0.8242187999999999,0.03173828,-3.601074,-17.94434,-5.126953,90.75256,3.147583,89.1925,17.85833,-34.04167,-10.00833,1
252439,0.12207029999999999,1.120605,0.2880859,-6.591797,-25.81787,-17.63916,90.82947,3.55957,85.62195,19.225,-33.56667,-12.425,1
252749,-0.00390625,0.8095703,-0.04638672,-8.850098,15.13672,5.554199,89.63745,4.213257,86.52283,14.275,-1.1,-0.9,1
253079,0.10107419999999999,0.9570312999999999,0.03955078,10.80322,33.02002,21.24023,91.1261,2.180786,91.57104,18.26667,1.433333,0.3416667,1
253339,-0.04931641,0.8315429999999999,-0.03662109,-13.79395,-19.89746,3.051758,89.31335,2.839966,88.05542,14.01667,-1.733333,2.283333,1
253609,-0.056640630000000004,1.5019529999999999,-0.22167969999999998,5.187988,-27.28271,-19.47021,90.47791,1.82373,83.88611,19.26667,3.316667,0.17500000000000002,1
253899,0.001953125,0.8037109,0.011230470000000001,-3.234863,13.12256,5.065918,89.75281,4.954834,82.37549,13.875,-1.391667,-1.116667,1
254109,0.017089840000000002,1.130371,-0.06591797,4.333496,6.835938,-4.272461,90.21973,5.306396,83.68835,23.94167,0.2583333,2.225,1
255339,-0.1870117,1.303711,0.284668,6.469727,16.78467,34.24072,92.79053,1.878662,82.34253,19.10833,0.9166667,0.025,1
255629,-0.05859375,0.9077147999999999,0.03662109,-2.563477,-16.90674,-13.42773,92.76306,0.2197266,83.05664,14.63333,-0.15833329999999998,-1.691667,1
255849,-0.008300781,0.7695312999999999,-0.10888669999999999,10.98633,-17.15088,10.92529,90.81299,0.6097412,79.6344,17.45833,-6.891667,0.9500000000000001,1
256069,0.024902340000000002,1.064453,0.06494141,1.342773,-5.065918,-6.652832,92.4939,4.844971,73.21838,19.49167,-37.26667,-13.8,1
256329,0.0234375,0.7919921999999999,-0.05566406,-27.09961,12.87842,-5.310059,90.05493,3.208008,74.92676,16.70833,-2.4,1.141667,1
256579,0.1376953,0.9746094,0.2011719,8.483887,17.82227,23.07129,92.27966,0.9613037,82.9248,18.06667,1.016667,1.758333,1
256879,-0.03076172,0.7993163999999999,-0.05615234,-9.155273,-12.45117,3.78418,91.73584,1.669922,79.28833,17.41667,-1.983333,-0.3333333,1
257149,-0.13134769999999998,1.111816,0.20507809999999999,-3.051758,-46.50879,-22.09473,92.75757,4.372559,71.93848,16.44167,1.55,-0.7083332999999999,1
257489,0.02392578,0.8120117,-0.08935547,-5.859375,22.2168,-10.86426,90.20874,3.493652,76.00891,17.51667,-1.916667,-0.225,1
257759,-0.15625,1.158691,0.1298828,2.929688,7.141113,13.73291,92.76306,0.6591796999999999,84.36951,16.15,-35.925,-6.458333,1
258069,-0.03076172,0.8666992,0.011230470000000001,-16.72363,-21.78955,-4.455566,91.68091,2.312622,79.28284,12.96667,-0.5416667,-0.3083333,1
258309,0.3359375,1.310547,0.35791019999999996,-8.789063,-27.771,-29.84619,91.1261,3.57605,71.32874,20.53333,2.816667,0.5166666999999999,1
258609,0.05761719,0.8369141,-0.05175781,-10.62012,15.44189,3.051758,90.35706,3.548584,71.77917,13.71667,-2.35,1.716667,1
258969,-0.1279297,1.07666,0.02539063,11.77979,-15.625,-4.272461,93.79028,-0.46691889999999997,81.80969,15.34167,-0.5750000000000001,-0.7583333,1
259239,-0.05029297,0.8002929999999999,-0.03857422,-16.8457,-11.65771,2.319336,93.07617,1.708374,76.8988,14.73333,-1.283333,-0.44166669999999997,1
259499,-0.06347656,0.9931641,0.1318359,16.29639,-7.202148,-28.62549,93.34534,3.674927,71.54846,21.01667,-33.60833,-12.95,1
259729,0.015136720000000001,0.8676758,-0.02539063,-2.868652,22.15576,9.643555,93.8562,4.031982,73.15796,13.65833,-1.225,-1.908333,1
259949,0.0009765625,1.007813,-0.06152344,2.01416,25.20752,-0.6103516,93.10913,3.817749,77.45911,18.56667,-33.80833,-7.258333,1
260179,-0.0234375,1.039063,0.04052734,6.591797,-24.90234,-14.95361,95.71838,0.2416992,82.6886,16.73333,-34.58333,-5.316667,1
260429,-0.07763672,0.7885742,-0.109375,-5.249023,-20.44678,6.469727,93.35083,1.400757,79.25537,18.73333,-1.75,0.3416667,1
260689,0.17041019999999998,1.297852,0.1098633,-5.67627,-13.5498,-17.82227,94.53735,5.08667,70.92224,21.01667,-33.15833,-11.6,1
260979,-0.01953125,0.8100586,-0.1733398,2.197266,13.67188,-12.45117,92.0105,3.966064,73.54248,17.2,-4.766667,0.6666667,1
261299,-0.07470703000000001,1.07666,0.03564453,10.25391,-2.807617,-2.563477,95.02075,0.2307129,80.82642,16.46667,-34.59167,-5.033333,1
261589,0.001464844,0.8876953,-0.1176758,-2.441406,-37.59766,10.19287,94.48242,1.312866,78.46436,23.64167,-3.391667,0.8666667,1
261899,-0.0034179690000000003,1.052246,0.03125,-0.24414059999999999,0.1831055,10.31494,95.19104,5.405273,71.21338,20.775,-33.00834,-10.50833,1
262199,0.02539063,1.068359,-0.09667969,-4.089355,14.5874,-3.2958979999999998,93.27393000000001,4.312134,72.97119,19.89167,-33.58333,-11.05833,1
262479,-0.1635742,1.083008,0.1850586,-10.00977,23.37646,13.12256,93.10913,0.1647949,77.6239,15.275,1.566667,0.15,1
262759,-0.04296875,0.796875,-0.06152344,-2.929688,-11.16943,9.216309,90.77454,1.494141,76.30005,16.76667,-2.466667,0.8,1
263069,0.1137695,1.109375,0.140625,-1.89209,-5.187988,-13.12256,92.86194,5.223999,69.86755,14.36667,1.125,-1.133333,1
263329,0.03125,0.8413086,-0.09863281,11.35254,11.59668,-7.141113,91.03821,3.982544,71.63086,21.58333,-6.4,1.483333,1
263669,-0.1210938,1.036133,0.0859375,0.4882813,-23.55957,-3.112793,93.47168,-0.04943848,78.21167,13.475,0.2333333,-0.85,1
263919,-0.02294922,0.9038086,-0.1616211,19.22607,0.793457,10.86426,92.61475,1.290894,71.63635,25.55833,-4.9,1.391667,1
264179,-0.03466797,1.047852,0.22558589999999998,-3.173828,-19.83643,-16.05225,93.25745,4.614258,71.83411,17.25,1.9583329999999999,0.1,1
264429,0.026367190000000002,0.7597655999999999,-0.03173828,-18.06641,3.4790039999999998,-6.408691,90.63171,4.235229,72.58118,17.84167,0.04166667,-0.3083333,1
264689,-0.2768555,1.469238,0.125,3.845215,51.02539,37.71973,91.77429,4.301147,76.15723,16.79167,3.45,0.65,1
264899,-0.2768555,1.469238,0.125,3.845215,51.02539,37.71973,91.77429,4.301147,76.15723,14.225,0.225,-0.25,1
265139,-0.044921880000000004,0.796875,-0.06005859,-11.2915,-20.87402,5.92041,90.98328,2.598267,74.05334,18.18333,-2.2,2.066667,1
265379,-0.09375000000000001,1.137207,0.2192383,10.37598,-34.79004,-7.568359,94.40002,5.103149,66.56616,17.45,1.258333,0.2583333,1
265619,0.03515625,0.8266602,-0.008300781,-12.81738,17.39502,7.69043,94.0979,4.108887,67.92297,12.4,-1.916667,-0.1083333,1
265869,-0.09375000000000001,1.280762,0.1831055,5.67627,31.92139,34.97314,94.49341,2.510376,73.80066,20.06667,1.683333,0.7583333,1
266129,-0.01904297,0.8779296999999999,-0.01757813,-11.1084,-18.67676,-4.272461,94.26819,1.878662,72.94922,17.66667,-34.28333,-8.95,1
266439,0.07128906,1.20459,0.1801758,-3.78418,-16.11328,-27.40479,94.55383,3.136597,69.01611,19.39167,2.9333329999999997,0.05833333,1
266759,0.009765625,0.8989258,-0.05517578,-7.568359,7.446289,4.760742,93.59802,4.306641,68.79639,12.991670000000001,-0.49166669999999996,-1.025,1
267049,0.12695309999999999,1.141602,0.12207029999999999,11.35254,32.89795,24.78027,94.64722,2.60376,73.27881000000001,17.85,2.258333,0.48333329999999997,1
267389,-0.01220703,0.8437500000000001,-0.06396484,-7.141113,-19.40918,-2.929688,94.40552,2.307129,73.125,12.98333,-2.825,1.15,1
267659,0.2558594,1.100586,0.3603516,-1.586914,-38.45215,-23.13232,95.56458,3.477173,66.39038,18.46667,2.125,-0.2166667,1
268019,0.06591797,0.7851562999999999,-0.18212889999999998,3.845215,4.455566,-4.394531,95.08118,3.78479,67.91748,19.625,-33.06667,-10.83333,1
268279,0.1230469,1.056152,0.1572266,6.469727,33.93555,22.76611,96.02051,0.9503174,70.77393000000001,17.65833,1.083333,-0.06666667,1
268539,-0.015625,0.8989258,-0.0009765625,-6.896973,-15.56396,-16.11328,95.24597,1.400757,70.68604,13.741670000000001,-1.575,-2.191667,1
268749,-0.20947269999999998,1.276855,-0.38134769999999996,12.26807,-26.06201,-14.95361,95.67993,2.351074,66.62109,17.575,3.225,0.8083332999999999,1
269009,-0.008789063,1.040527,0.07080078000000001,-1.098633,9.399414,9.155273,94.88892,6.28418,63.52844,14.25,-0.5416667,-0.8916666,1
269229,0.041015630000000004,0.8642578,-0.140625,-14.52637,4.760742,-3.356934,93.25745,4.383545,64.6875,17.8,-1.541667,0.6000000000000001,1
269479,-0.1381836,1.228516,0.1577148,6.652832,41.38184,14.34326,95.7074,-0.2416992,71.87256000000001,16.08333,1.425,-0.25,1
269759,0.002929688,0.8144530999999999,0.0234375,-7.263184,-46.93604,-9.338379,94.71863,2.021484,66.63208,12.80833,-1.533333,0.6083333,1
270049,0.004882813000000001,1.023438,0.1308594,-2.868652,20.1416,-8.300781,94.4989,5.185547,61.51794,14.85,-0.09166667,-0.31666669999999997,1
270369,0.06005859,0.8183594,-0.1132813,5.67627,8.483887,-10.43701,93.14209,3.405762,67.38464,22.125,-5.9,0.49166669999999996,1
270669,-0.09326172,1.092773,0.07958984,8.483887,-20.26367,-10.62012,95.60852,-0.7635498,73.73474,14.60833,0.24166669999999998,0.06666667,1
270999,-0.03759766,0.8852538999999999,-0.1953125,26.24512,-5.432129,9.460449,94.85046,1.609497,68.72498,23.125,-6.166667,0.05,1
271269,0.002441406,1.083984,0.07373047,-0.4882813,17.21191,10.31494,95.99304,6.322632,65.8905,13.58333,-0.2833333,-0.9166667,1
272579,0.0004882813,0.8330078,-0.05566406,-9.765625,17.94434,9.58252,93.58704,3.032227,64.64905,21.65833,-34.24166,-11.85833,1
272959,-0.15917969999999998,1.140625,0.253418,-1.403809,23.07129,25.57373,95.75684,1.246948,70.93323,18.75,1.525,0.5333333,1
273219,-0.03808594,0.8261719,-0.05761719,-11.47461,-12.69531,-4.089355,94.07593,2.389526,69.32373,13.90833,-2.725,1.733333,1
273499,-0.1445313,1.059082,0.15917969999999998,13.85498,-24.78027,-28.44238,95.3009,5.443726,60.69397,26.90833,-32.84167,-13.81667,1
273869,0.078125,0.7304687999999999,-0.02392578,-11.71875,15.31982,0.6103516,91.99951,4.5593259999999995,60.21606,18.2,-0.35000000000000003,0.3333333,1
