Timestamp,AccX,AccY,AccZ,GyroX,GyroY,GyroZ,AngX,AngY,AngZ,MagX,MagY,MagZ,Tag
10224,-0.02783203,1.002441,-0.01416016,-1.525879,-1.098633,-1.037598,89.32983,1.741333,116.6583,16.95,-0.125,-0.025,1
10414,-0.03222656,0.9912109,-0.01269531,0.6713867,0.6103516,0.6103516,89.41223,1.812744,116.6418,17.225,-0.2583333,0.1083333,1
10624,-0.01953125,1.003906,-0.017089840000000002,-1.586914,-2.563477,0.3051758,89.46167,1.642456,116.3452,16.90833,-0.2166667,-0.09166667,1
10844,-0.02734375,0.9868163999999999,-0.01171875,0.0,0.06103516,-0.4882813,89.46167,1.7028809999999999,116.51,18.16667,-37.40833,0.3333333,1
11074,-0.02392578,0.9892578,-0.00390625,0.24414059999999999,-0.42724609999999996,-0.3051758,89.39575,1.669922,116.2628,17.14167,-0.3416667,0.025,1
11324,-0.04003906,1.003418,-0.01953125,0.8544921999999999,1.220703,0.4882813,89.45068,1.658936,116.2354,18.13333,-37.775,0.3333333,1
11574,-0.02294922,1.006836,-0.015136720000000001,-0.3051758,1.525879,0.24414059999999999,89.41223,1.549072,116.2408,17.1,-0.2916667,-0.04166667,1
11844,-0.024902340000000002,1.002441,-0.01269531,-0.5493163999999999,0.0,0.6713867,89.26941,1.477661,116.3397,17.13333,-0.09166667,-0.1166667,1
12054,-0.02587891,1.010254,-0.009277344,-0.12207029999999999,-0.4882813,1.281738,89.20349,1.3623049999999999,115.8893,17.15833,-0.275,0.1416667,1
12274,-0.008789063,0.996582,-0.004394531,-0.24414059999999999,-1.403809,0.1831055,89.198,1.219482,115.8618,17.1,-0.2,0.0,1
12554,-0.01757813,1.00293,-0.015136720000000001,0.06103516,-0.12207029999999999,0.06103516,89.198,1.2854,116.0266,17.85833,-37.84167,0.1,1
12814,-0.01611328,1.003906,-0.01269531,-0.06103516,-0.4882813,0.0,89.10461,1.312866,115.6531,17.05833,-0.15833329999999998,0.05,1
13084,-0.01367188,1.005371,-0.01220703,0.9155272999999999,1.525879,-0.3662109,89.22546,1.3623049999999999,115.9442,17.175,-0.275,0.06666667,1
13364,-0.011230470000000001,1.006836,-0.009277344,-0.4882813,-2.990723,-0.793457,89.14307,1.472168,115.7025,17.90833,-37.94167,0.1083333,1
13664,0.002929688,1.012695,-0.02294922,0.42724609999999996,-0.4882813,0.6103516,89.26392,1.444702,115.6201,16.96667,0.1083333,-0.1083333,1
13924,-0.009277344,1.008301,-0.01464844,2.319336,1.953125,-1.220703,89.46716,1.4556879999999999,115.5707,17.0,-0.2666667,0.08333334,1
14224,-0.015136720000000001,0.9995117,-0.02148438,0.9155272999999999,-2.868652,-0.7324219,89.6759,1.604004,115.6036,17.01667,-0.1833333,0.2166667,1
14474,-0.04003906,0.9838867,-0.02197266,-0.8544921999999999,2.990723,0.7324219,89.89563,1.6149900000000001,115.8673,17.975,-37.54167,0.675,1
14744,-0.03271484,0.9707030999999999,-0.020996090000000002,-0.8544921999999999,-3.78418,1.403809,89.87366,1.5325929999999999,115.6421,16.675,-0.3083333,0.0,1
14954,-0.011230470000000001,0.9780272999999999,-0.02001953,-1.159668,0.0,0.4882813,89.97803,1.63147,115.5652,18.15833,-37.675,0.8333332999999999,1
15194,-0.056640630000000004,1.008301,-0.0234375,1.89209,2.380371,-0.8544921999999999,89.96704,1.6479489999999999,114.9445,17.08333,-0.40833329999999995,0.1833333,1
15464,-0.02197266,1.001953,-0.028808590000000002,-0.9155272999999999,-0.6103516,0.9765625,90.1593,1.763306,115.1752,17.05,-0.44166669999999997,-0.05833333,1
15684,-0.01855469,1.002441,-0.02587891,0.24414059999999999,-1.220703,-0.12207029999999999,90.10437,1.576538,115.0104,16.99167,-0.5416667,0.025,1
15894,-0.009765625,1.001953,-0.02539063,-0.4882813,0.12207029999999999,-0.06103516,90.02747,1.516113,114.9005,18.08333,-37.325,0.625,1
16170,0.001953125,1.00293,-0.02050781,-0.7324219,0.24414059999999999,0.12207029999999999,89.81323,1.483154,114.8621,18.05,-37.61666,0.6000000000000001,1
16454,-0.02148438,0.9931641,-0.03173828,-0.06103516,2.258301,-0.6103516,89.73633,1.5271000000000001,115.2356,17.0,-0.24166669999999998,0.025,1
16694,-0.02539063,1.007813,-0.03076172,0.3662109,-0.3051758,0.24414059999999999,89.81873,1.538086,115.1202,18.14167,-37.63334,0.675,1
16994,-0.030273440000000002,1.000977,-0.02148438,0.24414059999999999,-0.793457,-0.06103516,89.81873,1.582031,115.1532,17.1,-0.44166669999999997,-0.04166667,1
17314,-0.01660156,0.9975586,-0.022460940000000002,0.24414059999999999,0.6713867,-0.06103516,89.7583,1.516113,115.0543,17.025,-0.4333333,0.03333333,1
17594,-0.01757813,0.9980469,-0.02392578,0.12207029999999999,0.12207029999999999,0.0,89.73633,1.494141,115.0159,17.83333,-37.5,0.8250000000000001,1
17894,-0.01611328,0.9975586,-0.02539063,0.06103516,0.0,0.0,89.6759,1.483154,114.9719,17.88333,-37.46667,0.7666666999999999,1
18174,-0.02001953,1.0,-0.02539063,0.0,0.0,0.0,89.75281,1.461182,114.9829,17.06667,-0.45,-0.008333334000000001,1
18414,-0.01855469,1.0,-0.02587891,0.0,0.0,0.0,89.85718,1.428223,114.9884,17.05,-0.4166667,-0.008333334000000001,1
18794,-0.01757813,1.002441,-0.02783203,0.06103516,0.0,0.0,90.02197,1.389771,114.9884,17.9,-37.33333,0.7333333,1
19044,-0.01904297,0.9951171999999999,-0.02148438,-0.793457,0.3662109,0.0,89.86267,1.378784,114.9884,17.06667,-0.3833333,0.0,1
19304,-0.01904297,0.9970703,-0.02001953,0.06103516,-0.06103516,0.0,89.86816,1.389771,114.9335,17.94167,-37.69167,0.775,1
19534,-0.01904297,1.000488,-0.0234375,0.12207029999999999,0.0,0.0,89.89014,1.395264,114.8676,17.04167,-0.44166669999999997,0.01666667,1
19784,-0.01855469,0.9990234,-0.024902340000000002,-0.12207029999999999,-0.06103516,0.0,89.79126,1.40625,114.8126,17.95833,-37.81667,0.8333332999999999,1
20024,-0.01953125,1.000977,-0.02294922,-0.06103516,0.12207029999999999,0.0,89.70337,1.40625,114.7742,17.05833,-0.35833329999999997,-0.025,1
20304,-0.02001953,0.9990234,-0.020996090000000002,0.4882813,0.12207029999999999,0.0,89.76379,1.389771,114.7797,17.075,-0.4666667,-0.075,1
21504,-0.01416016,1.012695,0.004882813000000001,0.06103516,2.441406,-0.6713867,88.59375,1.713867,114.4556,17.23333,-0.01666667,-0.01666667,1
21714,-0.02685547,1.002441,0.008789063,-0.42724609999999996,-0.3051758,-0.24414059999999999,88.51135,1.7028809999999999,114.5215,17.2,-0.09166667,-0.2666667,1
21944,-0.02392578,1.000488,0.0,1.342773,1.159668,0.06103516,88.24768,1.697388,114.3292,18.1,-38.11666,-0.55,1
22214,-0.022460940000000002,1.00293,-0.004882813000000001,1.403809,0.0,0.0,88.57178,1.6479489999999999,114.3787,18.09167,-37.90833,-0.15833329999999998,1
22504,-0.03271484,1.004395,-0.01074219,0.5493163999999999,0.8544921999999999,0.6103516,88.77502,1.653442,114.4171,17.15,-0.2083333,0.04166667,1
22754,-0.02050781,1.000977,-0.009765625,2.197266,-1.708984,1.586914,89.02222,1.318359,114.2249,17.81667,-37.975,0.2,1
23024,-0.01953125,1.032227,-0.01611328,-5.126953,-1.8310549999999999,-7.446289,87.7533,1.219482,114.3622,17.85,-39.24166,-0.7333333,1
23334,-0.02783203,0.9794921999999999,0.04833984,-4.150391,-2.319336,-2.258301,86.51733,1.801758,113.9612,16.96667,0.6416666999999999,-0.1416667,1
23574,-0.02050781,0.9799804999999999,0.05957031,2.990723,2.197266,-0.3662109,85.979,2.109375,114.0216,16.96667,0.6000000000000001,1.025,1
23884,-0.0234375,1.005371,-0.011230470000000001,8.605957,0.4882813,1.6479489999999999,87.91809,1.851196,114.3567,17.075,-0.45,0.8250000000000001,1
24114,-0.01806641,1.007324,-0.03271484,5.004883,-0.5493163999999999,3.78418,89.15955,1.2854,114.4775,17.075,-0.6583333,0.55,1
24344,-0.002441406,1.001465,-0.052734380000000004,3.417969,-0.06103516,0.42724609999999996,90.33508,0.6976317999999999,114.0985,17.36667,-37.43333,2.1,1
24574,-0.009765625,1.0,-0.06640625,0.4882813,0.4882813,-0.12207029999999999,90.57129,0.6591796999999999,114.0765,17.11667,-1.083333,-0.15,1
24824,-0.001464844,0.9985352,-0.05761719,0.1831055,0.3051758,-0.06103516,90.52185,0.6756592,114.0271,17.44167,-37.31667,2.333333,1
25064,-0.0078125,1.0,-0.05908203,0.06103516,0.0,-0.12207029999999999,90.62073,0.7141113,114.0436,17.05,-1.016667,0.0,1
25334,-0.002929688,0.9956054999999999,-0.05859375,0.06103516,0.0,0.5493163999999999,90.62622,0.6756592,114.0051,17.11667,-1.075,-0.01666667,1
25554,-0.007324219000000001,0.9960937999999999,-0.05566406,0.3662109,0.8544921999999999,0.0,90.7251,0.6152344,114.0765,17.00833,-1.033333,0.0,1
25764,-0.004394531,0.9956054999999999,-0.05810547,-0.12207029999999999,0.06103516,-0.06103516,90.85693,0.6207275,114.082,17.35833,-37.30833,2.566667,1
26004,-0.001953125,0.9980469,-0.05761719,0.24414059999999999,0.12207029999999999,0.0,90.98328,0.5987549,114.126,17.025,-1.058333,-0.05,1
26254,-0.005859375,0.996582,-0.05859375,-0.06103516,0.06103516,0.0,91.10413,0.5712891,114.1754,17.025,-0.975,-0.01666667,1
26564,-0.005859375,0.9980469,-0.05712891,-0.1831055,0.06103516,0.0,91.24695,0.5493163999999999,114.1754,17.33333,-37.31667,2.366667,1
26864,-0.006347656,0.9960937999999999,-0.052734380000000004,-0.4882813,-0.5493163999999999,0.0,91.26343,0.5438232,114.1974,17.0,-0.9,-0.01666667,1
27184,-0.006835938000000001,0.9980469,-0.05371094,-0.06103516,0.12207029999999999,0.0,91.40076,0.5273438,114.1974,17.05833,-0.9166667,-0.008333334000000001,1
27464,-0.009277344,1.001953,-0.05712891,-0.24414059999999999,-0.12207029999999999,0.0,91.47217,0.5108642999999999,114.2194,17.28333,-37.24166,2.283333,1
27744,-0.006347656,0.9985352,-0.05322266,-0.12207029999999999,0.0,0.0,91.53259,0.5053711,114.2084,17.025,-0.9083334,0.0,1
27984,-0.005859375,0.9980469,-0.05322266,0.24414059999999999,0.06103516,0.0,91.66443,0.49438479999999996,114.2084,17.28333,-37.13334,2.316667,1
28324,-0.006347656,0.9990234,-0.04931641,-1.037598,-0.8544921999999999,0.5493163999999999,91.48315,0.5163574,114.1809,17.1,-0.8083332999999999,-0.06666667,1
28574,-0.01025391,1.001465,-0.04296875,-0.5493163999999999,0.0,-0.3051758,91.18103,0.5493163999999999,114.115,17.325,-37.43333,1.816667,1
28804,-0.01025391,1.001953,-0.04052734,-0.6103516,-0.24414059999999999,-0.06103516,91.00525,0.5987549,114.0271,17.03333,-0.725,-0.09166667,1
29054,-0.004882813000000001,1.007324,-0.04248047,0.5493163999999999,0.06103516,-0.3662109,90.81848,0.7141113,113.9227,17.475,-37.29167,1.875,1
29284,-0.01074219,1.001953,-0.04003906,-1.281738,-0.5493163999999999,-0.793457,90.67566,0.8239746,113.8568,17.075,-0.5416667,0.17500000000000002,1
29564,-0.01757813,1.007813,-0.052734380000000004,1.342773,0.7324219,-0.24414059999999999,90.98328,0.8734130999999999,113.8733,17.31667,-0.8916666,-0.025,1
29784,-0.01660156,1.004395,-0.04980469,-2.624512,0.3051758,-0.8544921999999999,90.67017,0.9558105,113.8403,16.98333,-0.5166666999999999,-0.17500000000000002,1
29994,-0.009277344,0.9960937999999999,-0.03320313,0.793457,-0.6103516,-0.1831055,90.55481,1.082153,113.714,17.73333,-37.2,1.566667,1
30234,0.0,1.005859,-0.04345703,1.342773,-0.4882813,0.0,90.73608,1.07666,113.7195,17.175,-0.6416666999999999,-0.05,1
30484,-0.02001953,1.001953,-0.04296875,0.06103516,0.9765625,0.1831055,90.61523,1.153564,113.5822,17.00833,-0.6666667,-0.008333334000000001,1
30794,-0.01953125,0.9897461,-0.04199219,0.3662109,-0.4882813,0.42724609999999996,90.66467,1.208496,113.5547,17.625,-37.19167,1.483333,1
31094,-0.02929688,0.9995117,-0.04345703,0.1831055,0.6713867,0.12207029999999999,90.74158,1.115112,113.4558,17.00833,-0.6666667,0.125,1
31414,-0.015136720000000001,0.9960937999999999,-0.04248047,0.42724609999999996,-0.9765625,0.793457,90.98877,1.07666,113.5986,16.96667,-0.6833332999999999,0.1333333,1
31694,-0.01318359,0.9970703,-0.05957031,0.9765625,-0.793457,-0.06103516,91.2085,0.9448242,113.1482,17.76667,-37.2,2.125,1
31994,-0.011230470000000001,0.9960937999999999,-0.04199219,-0.3662109,-0.9155272999999999,0.4882813,91.21948,0.8294678,113.2361,17.475,-37.18333,2.3,1
32274,-0.009277344,1.004883,-0.05859375,0.06103516,1.159668,-0.3051758,91.35681,0.8074950999999999,113.2306,17.2,-1.041667,-0.2166667,1
32554,-0.01367188,0.9975586,-0.04980469,-0.793457,0.0,0.12207029999999999,90.99976,0.9008788999999999,113.1097,17.03333,-0.7666666999999999,-0.03333333,1
32784,-0.008300781,0.9985352,-0.044921880000000004,-0.6103516,-0.42724609999999996,0.0,90.93933,0.9063721,113.1207,17.04167,-0.7333333,0.08333334,1
32974,-0.01220703,0.9975586,-0.04541016,1.342773,0.24414059999999999,0.0,91.14258,0.9283446999999999,113.0823,17.10833,-0.9166667,0.15833329999999998,1
33194,-0.011230470000000001,1.0,-0.05615234,0.24414059999999999,0.0,0.0,91.30737,0.9338379,113.0603,17.05,-0.9083334,-0.1,1
33404,-0.01171875,0.996582,-0.04296875,-0.3051758,-0.12207029999999999,0.0,90.99426,0.9393311,112.9944,17.56667,-36.96667,2.066667,1
33634,-0.01269531,0.9897461,-0.03955078,0.0,0.0,0.0,90.98328,0.9503174,112.9614,17.03333,-0.9083334,0.08333334,1
33884,-0.01269531,0.9990234,-0.048828130000000004,0.0,-0.3051758,0.0,91.06567,0.9558105,112.912,17.075,-0.8333332999999999,-0.025,1
34104,-0.01416016,0.9936522999999999,-0.04248047,-0.42724609999999996,-0.3051758,0.0,90.93933,0.9558105,112.8735,17.675,-37.18333,2.091667,1
34384,-0.01220703,0.996582,-0.04931641,0.3051758,0.0,0.0,91.14258,0.9448242,112.868,16.98333,-0.8333332999999999,0.01666667,1
34614,-0.01464844,0.9946288999999999,-0.048828130000000004,-0.12207029999999999,0.0,0.0,91.22498,0.9338379,112.879,16.99167,-0.8083332999999999,-0.01666667,1
34834,-0.01367188,0.9990234,-0.048828130000000004,0.0,0.0,0.0,91.32385,0.9228516,112.8735,17.09167,-0.8,0.04166667,1
35114,-0.01074219,1.000488,-0.05126953,-0.3662109,0.06103516,-0.3051758,91.45569,0.9173583999999999,112.901,17.56667,-37.2,2.016667,1
35374,-0.011230470000000001,0.9970703,-0.03857422,0.3051758,0.0,0.0,91.43921,0.9338379,112.9175,17.11667,-0.9666665999999999,-0.025,1
35654,-0.01464844,0.9995117,-0.04443359,-0.12207029999999999,0.42724609999999996,0.06103516,91.43372,0.9228516,112.901,17.03333,-0.7666666999999999,0.075,1
35924,-0.01855469,1.0,-0.0546875,-0.42724609999999996,-0.06103516,0.0,91.59851,0.8953857,112.9285,17.70833,-37.05,1.933333,1
36204,-0.01757813,0.9951171999999999,-0.04541016,-2.319336,-0.12207029999999999,0.0,91.24146,0.9008788999999999,112.9559,16.96667,-0.55,-0.06666667,1
36444,-0.01806641,0.996582,-0.04394531,1.037598,0.9155272999999999,0.1831055,91.3623,0.8898925999999999,112.8625,17.64167,-37.24166,1.766667,1
37764,-0.01025391,1.001465,-0.04931641,0.7324219,-0.42724609999999996,-0.06103516,91.48315,0.8734130999999999,112.4725,17.65,-37.01667,2.158333,1
37984,-0.011230470000000001,1.000977,-0.04980469,-0.3051758,0.4882813,-0.06103516,91.43372,0.9118651999999999,112.4231,17.05,-0.8166667,-0.05833333,1
38224,-0.01318359,1.000977,-0.04833984,-0.06103516,-0.1831055,0.0,91.35132,0.9173583999999999,112.4066,17.06667,-0.8583333999999999,-0.008333334000000001,1
38444,-0.01416016,1.000488,-0.046875,-0.06103516,-0.12207029999999999,0.0,91.35132,0.9283446999999999,112.3352,17.09167,-0.8083332999999999,0.01666667,1
38704,-0.01074219,0.9960937999999999,-0.05126953,0.3051758,0.0,0.0,91.37878,0.9283446999999999,112.3022,17.025,-0.8,0.008333334000000001,1
38924,-0.01367188,1.001953,-0.05029297,0.0,0.12207029999999999,0.0,91.51611,0.9118651999999999,112.3352,17.725,-37.16667,2.141667,1
39174,-0.01318359,0.9995117,-0.05175781,-0.1831055,0.1831055,0.0,91.56555,0.9008788999999999,112.3462,17.09167,-0.8416665999999999,-0.1333333,1
39444,-0.011230470000000001,0.9946288999999999,-0.03955078,-0.5493163999999999,-1.403809,0.42724609999999996,91.41174,0.8843994,112.2803,17.05,-0.7916667,0.05,1
39654,-0.01025391,1.002441,-0.05126953,0.06103516,0.5493163999999999,0.1831055,91.49963,0.8514404,112.1924,17.08333,-0.7416667,0.008333334000000001,1
39884,-0.011230470000000001,0.9995117,-0.04785156,0.7324219,0.12207029999999999,0.06103516,91.57104,0.8789062999999999,112.2803,17.59167,-37.18333,2.241667,1
40154,-0.011230470000000001,0.9980469,-0.05224609,0.9765625,0.06103516,-0.24414059999999999,91.77979,0.8679199,112.2253,17.475,-37.01667,2.0,1
40414,-0.011230470000000001,0.9990234,-0.05615234,0.06103516,0.0,0.0,91.80725,0.8843994,112.1924,17.04167,-0.925,-0.008333334000000001,1
40664,-0.009765625,0.9980469,-0.05371094,-0.1831055,0.0,0.0,91.71936,0.9008788999999999,112.1429,17.53333,-37.16667,2.358333,1
40964,-0.01220703,0.996582,-0.04785156,-0.06103516,-0.12207029999999999,0.0,91.63696,0.9063721,112.11,17.01667,-0.8833333,0.025,1
41214,-0.01220703,0.9980469,-0.052734380000000004,0.0,0.0,0.0,91.71387,0.9118651999999999,112.0551,17.04167,-0.8916666,0.025,1
41494,-0.01367188,0.9990234,-0.05371094,0.24414059999999999,0.1831055,0.0,91.8512,0.8953857,112.0331,17.05833,-0.9,0.0,1
41784,-0.01318359,0.9970703,-0.05224609,0.0,0.06103516,0.0,91.96106,0.8843994,112.0221,17.025,-0.9166667,0.0,1
42124,-0.01269531,0.9990234,-0.0546875,-0.06103516,0.0,0.0,92.05994,0.8734130999999999,112.0331,17.03333,-0.875,0.0,1
42324,-0.01318359,0.9980469,-0.05371094,-0.1831055,0.0,0.0,92.07642,0.8624267999999999,112.0276,17.0,-0.85,0.0,1
42554,-0.01220703,0.9975586,-0.05371094,-0.3051758,0.06103516,0.0,92.1698,0.8569336,112.0551,17.675,-37.16667,2.366667,1
42814,-0.015136720000000001,0.9995117,-0.05224609,-0.24414059999999999,0.06103516,0.0,92.14783,0.8514404,112.0276,17.04167,-0.8666667,-0.025,1
43054,-0.01269531,0.9980469,-0.05078125,-0.06103516,-0.1831055,0.0,92.18079,0.8459473,112.0386,17.025,-0.8583333999999999,-0.04166667,1
43304,-0.015136720000000001,0.996582,-0.05175781,0.3051758,-0.1831055,0.6713867,92.25769,0.8129883,112.0496,17.025,-0.875,0.008333334000000001,1
43554,-0.01416016,0.996582,-0.048828130000000004,-0.06103516,0.0,-0.12207029999999999,92.29065,0.802002,112.0001,17.05,-0.9166667,0.0,1
43764,-0.01611328,0.9990234,-0.05029297,-0.1831055,-0.06103516,0.12207029999999999,92.26318,0.8129883,112.0331,17.05,-0.8666667,0.0,1
43974,-0.01171875,0.9995117,-0.05175781,-0.06103516,0.3051758,0.0,92.27966,0.7910155999999999,112.0001,17.68333,-37.24166,2.158333,1
44254,-0.01269531,0.9995117,-0.04980469,0.6103516,0.12207029999999999,0.0,92.38953,0.7855225,112.0386,17.04167,-0.8333332999999999,0.1,1
44504,-0.01074219,1.0,-0.05810547,0.3662109,-0.3051758,0.12207029999999999,92.60925,0.7250977,111.9727,17.54167,-37.28333,2.533333,1
44774,-0.01025391,0.9990234,-0.05126953,-0.1831055,-0.24414059999999999,-0.1831055,92.62573,0.7470703,112.121,17.48333,-37.19167,2.35,1
45064,-0.009765625,0.9946288999999999,-0.05371094,0.24414059999999999,0.1831055,0.0,92.69165,0.7525634999999999,112.11,16.98333,-0.9166667,0.025,1
45314,-0.01171875,0.9990234,-0.05517578,-0.12207029999999999,0.0,0.0,92.75757,0.7470703,112.088,17.625,-37.26667,2.233333,1
45594,-0.01074219,0.996582,-0.05371094,0.0,-0.06103516,0.0,92.77954,0.7415771,112.0825,17.575,-37.425,2.433333,1
45894,-0.01318359,1.0,-0.05371094,0.0,0.12207029999999999,0.0,92.80701,0.7415771,112.088,17.04167,-0.925,0.008333334000000001,1
46184,-0.01318359,0.9985352,-0.05371094,0.1831055,0.1831055,0.0,92.81799,0.736084,112.088,17.76667,-37.24166,2.241667,1
46434,-0.01367188,0.9995117,-0.05371094,0.1831055,0.0,0.0,92.91138,0.736084,112.077,17.06667,-0.9583332999999999,0.05,1
46684,-0.011230470000000001,1.000488,-0.05761719,0.3662109,0.0,0.0,93.03223,0.7305908,112.088,17.04167,-0.9916666999999999,-0.008333334000000001,1
46904,-0.01171875,0.9975586,-0.056640630000000004,0.12207029999999999,-0.06103516,0.0,93.04321,0.7305908,112.0935,17.56667,-37.0,2.5,1
47134,-0.01171875,0.9960937999999999,-0.0546875,0.24414059999999999,0.0,0.0,93.08167,0.7305908,112.0825,17.025,-1.008333,0.04166667,1
47384,-0.01367188,0.9985352,-0.05859375,-0.06103516,-0.06103516,0.0,93.1366,0.7305908,112.099,17.56667,-36.70833,2.458333,1
47654,-0.01220703,0.9975586,-0.056640630000000004,0.0,0.1831055,0.0,93.10364,0.7305908,112.11,17.04167,-1.016667,-0.01666667,1
47904,-0.01416016,0.9946288999999999,-0.05566406,0.0,-0.06103516,0.0,93.10364,0.736084,112.099,17.00833,-0.9583332999999999,0.008333334000000001,1
48134,-0.01318359,0.996582,-0.05712891,0.3051758,-0.1831055,0.0,93.20251,0.736084,112.099,17.61667,-37.0,2.316667,1
48390,-0.015625,0.9995117,-0.06884766,-1.586914,-0.06103516,0.0,93.20801,0.7580566,112.066,17.61667,-37.05833,2.483333,1
48694,-0.01171875,0.9990234,-0.05712891,0.1831055,0.1831055,0.0,92.90588,0.7800292999999999,112.0111,16.94167,-0.9333332999999999,0.008333334000000001,1
48934,-0.01318359,0.9985352,-0.05908203,-0.12207029999999999,-0.1831055,0.0,92.85095,0.802002,111.9507,17.06667,-0.8916666,-0.075,1
49214,-0.008300781,0.9975586,-0.05517578,-0.793457,-0.3051758,0.0,92.60925,0.8294678,111.8463,17.55833,-37.06667,2.475,1
49484,-0.01269531,0.9970703,-0.04785156,-0.3051758,1.037598,-0.5493163999999999,92.46643,0.8789062999999999,111.8353,16.93333,-0.8916666,-0.008333334000000001,1
49754,-0.01367188,0.9980469,-0.04980469,0.24414059999999999,-0.06103516,-0.06103516,92.47742,0.9118651999999999,111.8573,17.04167,-0.925,0.025,1
50034,-0.01464844,0.9970703,-0.052734380000000004,0.5493163999999999,0.3051758,0.0,92.62024,0.9008788999999999,111.8738,17.675,-37.19167,2.433333,1
50304,-0.01171875,0.996582,-0.05224609,0.1831055,0.0,0.0,92.67517,0.8953857,111.8848,17.025,-0.9083334,0.008333334000000001,1
50584,-0.01416016,0.9980469,-0.052734380000000004,0.0,0.0,0.0,92.7356,0.8843994,111.8848,17.01667,-0.925,0.03333333,1
50804,-0.01318359,0.9975586,-0.05322266,-0.12207029999999999,-0.06103516,0.0,92.78503,0.8789062999999999,111.9012,17.58333,-37.14167,2.283333,1
51044,-0.01416016,0.9956054999999999,-0.05224609,0.06103516,0.1831055,0.0,92.79602,0.8734130999999999,111.9012,17.05,-0.9333332999999999,0.0,1
51304,-0.01367188,1.000977,-0.05566406,0.0,-0.1831055,0.0,92.83997,0.8679199,111.8848,17.05,-0.875,0.01666667,1
51514,-0.01367188,0.9995117,-0.05517578,0.06103516,0.06103516,0.0,92.86743,0.8679199,111.8793,17.03333,-0.9166667,0.0,1
51734,-0.01464844,0.9975586,-0.05517578,0.06103516,0.0,0.0,92.8949,0.8624267999999999,111.8738,17.675,-36.95833,2.408333,1
51984,-0.015625,1.000977,-0.05419922,0.0,0.06103516,0.0,92.93335,0.8569336,111.8793,17.05,-0.9333332999999999,-0.008333334000000001,1
52224,-0.01318359,0.9960937999999999,-0.0546875,-0.12207029999999999,-0.1831055,0.0,92.92786,0.8514404,111.8738,17.025,-0.9333332999999999,-0.01666667,1
52434,-0.01611328,0.9995117,-0.05566406,-0.06103516,-0.06103516,0.0,92.94983,0.8459473,111.8848,17.675,-36.96667,2.375,1
53664,-0.01464844,0.9970703,-0.06152344,0.0,-0.3662109,0.0,93.26294,0.8239746,111.8903,17.60833,-36.94167,2.6,1
53914,-0.01416016,0.9980469,-0.05908203,-0.12207029999999999,0.0,0.0,93.26294,0.8184813999999999,111.8848,17.01667,-0.9916666999999999,-0.01666667,1
54164,-0.01367188,0.9980469,-0.060546880000000004,0.3662109,0.12207029999999999,0.0,93.29041,0.8129883,111.8958,17.55833,-37.05,2.633333,1
54464,-0.01318359,0.9985352,-0.05908203,0.0,0.0,0.0,93.3728,0.8074950999999999,111.8573,17.06667,-1.083333,-0.04166667,1
54764,-0.011230470000000001,0.9946288999999999,-0.05761719,-0.1831055,0.0,0.0,93.26843,0.8074950999999999,111.8408,17.65,-36.85833,2.641667,1
55064,-0.01367188,0.9975586,-0.06152344,0.06103516,0.06103516,0.0,93.32336,0.802002,111.8518,17.56667,-37.08333,2.45,1
55344,-0.01660156,0.9985352,-0.06152344,-0.5493163999999999,0.3662109,0.0,93.28491,0.7965088,111.9177,17.05,-0.9916666999999999,-0.075,1
55584,-0.017089840000000002,0.996582,-0.06201172,-1.281738,0.3662109,0.06103516,93.02673,0.8184813999999999,111.9012,17.59167,-36.98333,2.375,1
55924,-0.008300781,1.005859,-0.06640625,-1.220703,0.4882813,-0.1831055,92.87292,0.7910155999999999,111.8573,17.01667,-0.8166667,-0.24166669999999998,1
56134,-0.01074219,0.9985352,-0.04150391,0.12207029999999999,-0.3051758,0.24414059999999999,92.46643,0.7910155999999999,111.7749,17.08333,-0.8166667,0.15833329999999998,1
56344,-0.01269531,0.996582,-0.05371094,0.9765625,0.06103516,0.06103516,92.6532,0.7855225,111.7859,17.05,-0.9416667,0.075,1
56554,-0.011230470000000001,0.9980469,-0.05517578,-0.5493163999999999,0.6103516,-0.06103516,92.52686,0.7910155999999999,111.7419,17.08333,-0.875,-0.08333334,1
56774,-0.011230470000000001,1.0,-0.05126953,0.42724609999999996,-0.12207029999999999,0.0,92.36755,0.8129883,111.6705,17.44167,-37.15,2.266667,1
57004,-0.01269531,0.9970703,-0.05078125,0.42724609999999996,0.6103516,0.0,92.40601,0.8239746,111.6595,17.04167,-1.016667,0.05,1
57264,-0.011230470000000001,0.9995117,-0.05419922,0.6103516,-0.3662109,0.0,92.47192,0.8294678,111.4948,17.475,-37.19167,2.366667,1
57514,-0.011230470000000001,0.9975586,-0.05419922,0.06103516,0.0,0.0,92.55981,0.8184813999999999,111.5112,17.04167,-1.008333,0.04166667,1
57774,-0.01171875,1.000488,-0.056640630000000004,0.24414059999999999,0.0,0.0,92.64221,0.8074950999999999,111.5057,17.04167,-1.0,0.025,1
57984,-0.008300781,0.9946288999999999,-0.05712891,-0.06103516,-0.12207029999999999,0.0,92.65869,0.7965088,111.5057,17.00833,-0.9500000000000001,0.008333334000000001,1
58204,-0.011230470000000001,0.9970703,-0.05761719,0.06103516,0.0,0.0,92.75208,0.7855225,111.5002,17.025,-0.975,0.01666667,1
58484,-0.01269531,0.9980469,-0.05859375,-0.24414059999999999,0.0,0.0,92.82898,0.7745361,111.5167,17.50833,-37.00834,2.391667,1
58744,-0.01318359,0.996582,-0.06201172,0.3051758,0.0,0.0,92.92236,0.7745361,111.5002,17.0,-0.9916666999999999,-0.04166667,1
58994,-0.011230470000000001,1.0,-0.05761719,-0.12207029999999999,0.06103516,0.0,92.91687,0.7690429999999999,111.5057,17.70833,-36.94167,2.533333,1
59304,-0.01367188,0.9990234,-0.05908203,0.0,-0.3662109,0.0,92.94434,0.7635498,111.4948,17.625,-36.94167,2.733333,1
59574,-0.01074219,0.9990234,-0.05566406,0.0,0.12207029999999999,0.0,92.95532,0.7580566,111.5002,17.05,-1.0,0.008333334000000001,1
59814,-0.01318359,0.9970703,-0.056640630000000004,0.0,0.3662109,0.0,92.9718,0.7525634999999999,111.4893,17.5,-36.98333,2.466667,1
60154,-0.015136720000000001,0.9975586,-0.05810547,0.12207029999999999,0.0,0.0,93.02124,0.7470703,111.5057,16.98333,-0.975,0.0,1
60354,-0.01318359,0.9980469,-0.05908203,0.0,0.0,0.0,93.06519,0.7470703,111.4948,17.09167,-0.9916666999999999,0.0,1
60574,-0.01318359,1.000488,-0.06152344,0.06103516,0.0,0.0,93.11462,0.7470703,111.5167,17.00833,-0.9583332999999999,0.01666667,1
60784,-0.011230470000000001,0.9956054999999999,-0.05859375,0.06103516,0.0,0.0,93.12561,0.7415771,111.5112,17.0,-1.016667,0.0,1
61004,-0.01074219,0.9960937999999999,-0.05371094,0.1831055,0.12207029999999999,0.0,93.17505,0.7415771,111.5167,17.64167,-37.03333,2.308333,1
61244,-0.01416016,0.9960937999999999,-0.06005859,0.06103516,0.0,0.0,93.23547,0.736084,111.5167,17.04167,-1.016667,-0.008333334000000001,1
61494,-0.01416016,0.9936522999999999,-0.04638672,-0.42724609999999996,-0.1831055,0.0,93.08167,0.7415771,111.5112,17.6,-36.89167,2.308333,1
61734,-0.015625,0.9985352,-0.05371094,0.5493163999999999,0.24414059999999999,0.0,93.18604,0.736084,111.5332,17.06667,-1.041667,0.06666667,1
62004,-0.01074219,0.9960937999999999,-0.05761719,0.06103516,-0.1831055,0.0,93.25745,0.7415771,111.5277,16.99167,-0.9500000000000001,0.0,1
62234,-0.01318359,0.9985352,-0.05615234,-0.06103516,0.06103516,0.0,93.24646,0.736084,111.5332,17.60833,-36.85833,2.408333,1
62504,-0.01171875,0.9960937999999999,-0.05712891,0.0,0.0,0.0,93.24097,0.736084,111.5167,17.01667,-0.9583332999999999,0.008333334000000001,1
62734,-0.01318359,0.9995117,-0.05810547,0.0,0.0,0.0,93.28491,0.7305908,111.5167,17.03333,-0.9916666999999999,0.0,1
63044,-0.01318359,0.9975586,-0.05517578,-0.24414059999999999,0.06103516,0.0,93.29041,0.736084,111.5057,17.03333,-0.9833333999999999,-0.025,1
63314,-0.01171875,0.9951171999999999,-0.05810547,0.1831055,0.06103516,0.0,93.34534,0.736084,111.5112,17.51667,-36.94167,2.458333,1
63624,-0.01269531,0.9980469,-0.05810547,0.0,-0.12207029999999999,0.0,93.3728,0.736084,111.5167,17.03333,-0.975,-0.025,1
63864,-0.01367188,0.9990234,-0.05859375,0.0,-0.4882813,0.0,93.36731,0.736084,111.5167,17.0,-0.9833333999999999,0.0,1
64134,-0.01464844,0.9995117,-0.05712891,-0.06103516,0.793457,-0.3051758,93.38928,0.7580566,111.5167,17.56667,-36.875,2.441667,1
64454,-0.01220703,0.9975586,-0.05712891,-0.24414059999999999,0.06103516,0.06103516,93.33435,0.7855225,111.5222,17.00833,-0.9500000000000001,0.008333334000000001,1
64684,-0.01269531,0.996582,-0.05615234,0.24414059999999999,0.12207029999999999,-0.12207029999999999,93.35632,0.7745361,111.5497,16.98333,-0.975,0.09166667,1
64894,-0.01318359,0.9956054999999999,-0.060546880000000004,0.6713867,0.1831055,0.06103516,93.49365,0.7690429999999999,111.5387,17.075,-1.041667,0.04166667,1
65134,-0.01416016,0.9980469,-0.060546880000000004,-0.12207029999999999,-0.12207029999999999,-0.12207029999999999,93.49915,0.7635498,111.5497,17.025,-1.016667,-0.03333333,1
65404,-0.01220703,0.9980469,-0.05859375,-0.1831055,0.0,0.0,93.4552,0.7745361,111.5442,17.04167,-1.008333,0.008333334000000001,1
65634,-0.01464844,0.9970703,-0.05859375,-0.1831055,0.24414059999999999,0.0,93.43323,0.7745361,111.5607,16.95833,-0.9833333999999999,-0.03333333,1
65844,-0.01416016,1.0,-0.056640630000000004,-0.1831055,-0.06103516,0.0,93.43323,0.7745361,111.5497,17.69167,-36.94167,2.4,1
66084,-0.01025391,0.9970703,-0.05175781,0.0,0.42724609999999996,0.0,93.3728,0.7745361,111.5497,17.04167,-1.0,0.08333334,1
66484,-0.01318359,0.9990234,-0.06396484,0.0,-0.3051758,0.06103516,93.59253,0.7580566,111.5442,17.025,-1.041667,-0.06666667,1
66754,-0.020996090000000002,0.9980469,-0.06738281,0.8544921999999999,0.06103516,0.1831055,93.67493,0.7910155999999999,111.6101,17.03333,-1.066667,-0.008333334000000001,1
67064,-0.01318359,0.996582,-0.06445313,0.1831055,0.0,-0.12207029999999999,93.71338,0.7965088,111.5662,17.68333,-36.99166,2.741667,1
67334,-0.01416016,0.9980469,-0.0625,0.0,-0.1831055,0.0,93.70239,0.8074950999999999,111.5552,17.70833,-36.8,2.6,1
67624,-0.01416016,0.9975586,-0.0625,-0.1831055,0.0,0.0,93.68591,0.8074950999999999,111.5497,17.01667,-1.058333,-0.01666667,1
67874,-0.01269531,0.9946288999999999,-0.06103516,-0.12207029999999999,-0.12207029999999999,0.0,93.66394,0.8074950999999999,111.5332,17.68333,-36.64167,2.566667,1
68154,-0.01464844,0.9970703,-0.06347656,-0.06103516,0.0,0.0,93.69141,0.8074950999999999,111.5277,17.68333,-36.65833,2.75,1
68474,-0.01416016,0.9975586,-0.05957031,-0.12207029999999999,0.06103516,0.0,93.63098,0.8074950999999999,111.5332,17.7,-36.75,2.7,1
68804,-0.01367188,0.9956054999999999,-0.06103516,0.12207029999999999,0.0,0.0,93.62549,0.8074950999999999,111.5332,17.01667,-1.041667,-0.008333334000000001,1
70004,-0.015136720000000001,0.9990234,-0.05908203,-0.06103516,-0.3662109,0.0,93.57605,0.8074950999999999,111.5881,16.975,-0.975,0.0,1
70234,-0.01464844,0.9980469,-0.05810547,0.0,0.1831055,0.0,93.58154,0.8074950999999999,111.5991,17.06667,-1.008333,0.008333334000000001,1
70444,-0.01416016,0.9985352,-0.05957031,0.0,0.24414059999999999,0.0,93.60901,0.802002,111.5771,17.03333,-1.025,-0.008333334000000001,1
70654,-0.01220703,0.9975586,-0.05908203,0.0,-0.24414059999999999,0.0,93.60352,0.802002,111.5826,17.05,-1.0,0.0,1
70874,-0.01269531,0.9975586,-0.05810547,0.12207029999999999,0.0,0.0,93.58704,0.802002,111.5717,17.6,-36.8,2.708333,1
71104,-0.01318359,0.9995117,-0.05908203,0.0,0.12207029999999999,0.0,93.58704,0.7965088,111.5662,17.01667,-1.0,-0.008333334000000001,1
71394,-0.01367188,0.9980469,-0.05908203,-0.06103516,0.06103516,0.0,93.57056,0.7965088,111.5662,16.99167,-0.9833333999999999,-0.025,1
71664,-0.01220703,0.9970703,-0.05615234,0.12207029999999999,0.0,0.0,93.55957,0.7965088,111.5607,17.0,-1.0,0.03333333,1
71874,-0.01318359,0.9960937999999999,-0.05908203,0.0,0.0,0.0,93.57605,0.7910155999999999,111.5662,17.04167,-1.0,0.008333334000000001,1
72104,-0.01220703,0.9975586,-0.05810547,0.0,0.0,0.0,93.54858,0.7910155999999999,111.5662,17.71667,-36.86666,2.608333,1
72374,-0.01269531,0.9975586,-0.05810547,0.06103516,0.12207029999999999,0.0,93.54858,0.7910155999999999,111.5771,17.61667,-36.70833,2.408333,1
72664,-0.01464844,0.9985352,-0.06005859,0.0,0.0,0.0,93.54858,0.7855225,111.5717,17.025,-0.9833333999999999,-0.01666667,1
72904,-0.01416016,0.9995117,-0.05761719,-0.42724609999999996,-0.06103516,0.0,93.48816,0.7855225,111.5662,17.05,-0.9666665999999999,-0.008333334000000001,1
73214,-0.015136720000000001,0.9980469,-0.05078125,-0.793457,-0.9155272999999999,-0.3662109,93.35083,0.7965088,111.5112,17.11667,-0.8833333,-0.04166667,1
73524,-0.017089840000000002,1.01416,-0.07617188,-11.2915,-2.990723,-3.90625,91.56006000000001,1.439209,110.8575,16.93333,-2.066667,-4.008333,1
73794,-0.06396484,1.151855,0.1230469,-69.39697,-1.586914,-11.1084,78.60718,3.66394,109.8523,20.5,-39.04167,-10.83333,1
74144,-0.1308594,0.875,0.3945313,-4.455566,9.216309,1.098633,70.03235,5.762329,110.5609,14.75833,5.516667,2.316667,1
74334,-0.1098633,0.8847655999999999,0.2436523,29.96826,24.96338,13.5498,73.63037,5.19104,114.071,15.28333,2.833333,4.233333,1
74554,-0.1694336,0.8325195,0.1601563,35.21729,21.66748,9.338379,79.43115,3.900146,119.9048,15.175,3.316667,3.858333,1
74764,-0.01025391,0.9174804999999999,0.1884766,16.11328,24.23096,9.094238,83.90808,3.532104,124.0302,17.44167,1.825,1.083333,1
74984,0.02197266,1.015625,0.01611328,0.0,34.24072,1.037598,85.12756,2.49939,131.2756,11.80833,-39.43333,5.366667,1
75214,0.008789063,1.024414,-0.11279299999999999,-4.455566,60.11963,0.793457,85.29236,2.49939,140.4657,17.69167,-1.925,-1.483333,1
75494,-0.06396484,1.148438,0.04199219,7.873535,40.2832,22.88818,84.91882,1.120605,152.71,17.475,1.625,-0.4,1
75714,-0.024902340000000002,1.03418,0.06738281,-8.666992,48.70605,-8.422852,83.96301,0.2362061,164.6796,-5.941667,-42.43333,10.88333,1
75954,-0.15869139999999998,0.9384766,0.007324219000000001,-9.399414,64.81934,-4.394531,81.49109,3.751831,177.0776,15.4,-0.8333332999999999,-2.141667,1
76194,-0.1728516,1.050781,-0.01025391,0.3051758,18.67676,6.286621,80.62317,4.152832,-174.1718,17.84167,2.458333,2.875,1
76414,-0.03320313,0.9746094,0.1933594,6.530762,26.36719,16.35742,85.03418,5.839233,-173.2324,16.76667,1.166667,0.45,1
76724,-0.007324219000000001,0.9238280999999999,-0.06933594,0.0,10.62012,1.281738,85.03967,3.323364,-166.4319,17.06667,-1.15,-0.47500000000000003,1
77024,0.06591797,0.9570312999999999,0.269043,-3.540039,13.3667,9.338379,86.65466,-0.1647949,-164.2291,16.96667,2.183333,0.3333333,1
77324,-0.05517578,0.9082030999999999,0.04931641,-6.103516,1.7700200000000001,-5.615234,85.13855,2.433472,-161.6418,-20.59167,-43.84167,8.041667,1
77624,-0.1484375,1.145508,0.06445313,29.05273,-12.69531,-26.85547,84.51782,3.543091,-162.2186,-18.33333,-44.15,9.066667,1
77904,-0.08642578000000001,0.9438477,0.16650389999999998,-0.7324219,-4.455566,18.9209,86.14929,5.50415,-164.5587,16.075,0.1166667,-0.1083333,1
78144,0.005371094000000001,0.9892578,-0.06787109,8.605957,13.30566,2.990723,85.94604,2.752075,-161.3892,-20.65833,-44.40833,9.366667,1
78494,-0.22558589999999998,1.075684,0.17431639999999998,-0.9155272999999999,16.90674,2.441406,86.48987,-1.620483,-158.3624,15.28333,2.233333,-0.36666669999999996,1
78694,-0.12451169999999999,0.9165038999999999,0.041015630000000004,-5.493164,-0.24414059999999999,-12.57324,85.52856,1.801758,-157.7362,15.55,-1.241667,-1.541667,1
78904,-0.17871089999999998,1.053223,-0.04443359,0.6103516,-2.624512,-5.859375,83.85864,1.96106,-157.6868,20.90833,0.17500000000000002,2.308333,1
79114,-0.11669919999999999,1.004883,0.3110352,6.408691,-6.103516,-28.86963,85.99548,6.300659,-159.0216,16.36667,3.558333,-0.5833332999999999,1
79334,-0.03466797,0.9023437999999999,-0.01074219,-6.347656,9.521484,10.62012,83.68286,3.180542,-157.9175,-21.81667,-47.0,6.65,1
79584,-0.22900389999999998,1.199707,-0.171875,-0.3051758,-13.73291,1.403809,84.28711,2.861938,-156.4948,17.825,5.916667,-0.3916667,1
79824,-0.05175781,0.8896484,0.15478519999999998,-2.075195,0.3662109,-18.9209,84.25415,0.8129883,-159.7961,-22.575,-47.24166,7.541667,1
80064,-0.10107419999999999,0.8300780999999999,-0.05126953,8.117676,3.90625,5.615234,83.07861,2.521362,-158.335,19.425,-0.5083333,0.1166667,1
80334,-0.09716797,1.246094,0.1342773,18.55469,-13.79395,-28.74756,84.66614,3.235474,-160.5487,18.075,4.333333,-0.125,1
80554,-0.09521484000000001,0.8730469,0.1191406,-3.051758,5.004883,19.77539,86.19324,3.389282,-160.7135,15.775,0.85,-1.441667,1
80804,0.05615234,1.04541,0.0034179690000000003,7.93457,8.361816,6.04248,83.71582,1.7248539999999999,-157.868,20.925,0.275,0.85,1
81044,-0.1035156,0.9643554999999999,0.1308594,-0.24414059999999999,1.342773,-20.01953,85.07263,-1.159058,-155.127,-25.66667,-47.00834,9.175,1
81344,-0.2001953,0.875,-0.09667969,10.19287,-7.69043,6.469727,82.01843,2.131348,-154.1986,-23.925,-47.975,8.308333,1
81604,-0.060546880000000004,0.9916992,0.2978516,15.25879,-10.55908,-30.45654,85.91309,4.207764,-156.8079,17.06667,3.058333,-0.31666669999999997,1
81864,-0.06103516,0.8764647999999999,-0.07373047,-6.591797,4.333496,7.202148,84.78149,1.774292,-156.0608,-22.675,-46.46667,10.925,1
82154,-0.1381836,1.043945,0.3354492,-2.624512,-2.624512,24.23096,86.12732,-0.9283446999999999,-156.1047,-25.19167,-44.31667,11.24167,1
82474,-0.06542969,0.8813477,-0.022460940000000002,-9.399414,1.7700200000000001,-5.554199,84.07837,2.114868,-155.4565,15.275,-0.65,0.9416667,1
82734,-0.002441406,1.281738,0.006347656,1.098633,-27.16064,-7.995605,83.11707,1.950073,-156.6705,17.10833,5.308333,2.466667,1
82924,0.03955078,0.996582,0.1777344,4.577637,-12.08496,14.52637,85.73181,4.812012,-159.4666,14.75,1.325,-0.9583332999999999,1
83134,-0.07910156,0.8422852,-0.022460940000000002,-15.625,4.821777,7.995605,83.84216,1.554565,-158.5217,17.0,-1.85,3.125,1
83354,0.1000977,1.276855,-0.2119141,-6.652832,10.0708,5.7983400000000005,84.90784,0.9503174,-156.665,17.75833,7.316667,-0.875,1
83564,-0.026367190000000002,0.8847655999999999,0.09375000000000001,-3.2958979999999998,-6.774902,-23.86475,84.03992,0.3131104,-155.4291,-21.85,-43.76667,9.108334,1
83804,-0.2509766,0.8496094,-0.06738281,6.408691,-6.225586,11.77979,81.2384,1.763306,-155.3741,21.26667,-3.791667,0.025,1
84054,-0.05224609,1.1635739999999999,0.2348633,-0.9155272999999999,0.0,7.324219,85.04517,4.592285,-157.1045,-18.71667,-43.9,10.13333,1
84294,-0.07421875,0.8364258,-0.005859375,-19.89746,13.67188,14.09912,83.0127,0.5877686,-153.1,15.025,-0.85,0.1083333,1
84584,0.04052734,1.136719,0.2607422,3.234863,8.666992,14.09912,82.2821,0.6756592,-148.8263,-26.25,-44.8,5.55,1
85854,0.011230470000000001,1.323242,0.04248047,-0.9155272999999999,2.380371,27.34375,84.96826,0.07141113,-153.457,17.26667,4.125,-0.9,1
86084,-0.08789063,0.8652344,0.0034179690000000003,2.502441,-11.47461,-15.31982,84.48486,0.7305908,-153.7372,-22.89167,-46.48333,9.716666,1
86344,-0.02539063,1.166992,-0.08935547,9.277344,-18.49365,-8.850098,85.92957,0.9448242,-156.2256,17.1,3.55,3.208333,1
86594,0.006347656,0.8212891,0.08398438,-18.73779,20.08057,23.01025,87.95654,2.878418,-158.7085,-19.95833,-45.5,13.025,1
86894,-0.05322266,1.094238,-0.1342773,-3.417969,-1.342773,1.586914,86.41296,1.461182,-155.6873,17.95,4.166667,0.03333333,1
87204,-0.02685547,0.9169921999999999,0.1293945,-4.882813,-11.1084,-27.70996,85.43518,-1.027222,-156.6156,-21.49167,-45.725,10.866670000000001,1
87504,-0.11425779999999999,1.100586,-0.052734380000000004,9.521484,-10.55908,2.13623,82.9248,1.571045,-159.7302,-18.175,-46.35833,10.63333,1
87814,-0.01220703,0.902832,0.1445313,-2.441406,-4.577637,29.05273,86.32507,3.735352,-165.3058,14.866670000000001,0.2833333,-0.6000000000000001,1
88044,-0.030273440000000002,0.8105469,-0.1040039,-7.568359,4.089355,1.098633,84.24316,0.5932617,-162.6086,18.41667,-0.31666669999999997,0.8083332999999999,1
88274,0.09228516,0.9414062999999999,0.25488279999999996,-8.361816,15.93018,23.55957,85.60547,-2.026978,-160.5487,-20.61667,-44.23333,11.11667,1
88504,-0.09521484000000001,0.8427734,0.07080078000000001,-7.69043,4.760742,-20.20264,84.39148,1.680908,-158.6096,12.866670000000001,-1.283333,-0.9500000000000001,1
88774,-0.1499023,1.186035,0.04052734,3.662109,0.42724609999999996,1.708984,83.6499,1.741333,-157.3627,20.50833,1.8,3.216667,1
88984,-0.19824219999999998,1.174805,0.2729492,0.3051758,-11.2915,-16.78467,86.59973,4.8614500000000005,-159.9115,13.7,2.258333,-1.358333,1
89204,-0.01611328,0.7885742,-0.07861328000000001,-10.37598,13.12256,-5.737305,83.83118,0.9283446999999999,-156.5222,-20.225,-44.86666,9.425,1
89454,0.02441406,1.004883,0.2612305,9.58252,-4.02832,21.1792,85.46814,-0.604248,-154.8193,20.03333,4.016667,-0.625,1
89694,-0.10888669999999999,0.8115234,0.01025391,-0.6713867,-2.380371,-11.90186,84.30908,2.27417,-152.4463,-21.19167,-45.425,7.741667,1
89944,-0.18164059999999999,1.188965,-0.215332,0.7324219,-7.507324,-0.7324219,85.30884,2.340088,-152.7155,15.94167,5.691667,3.116667,1
90224,0.02783203,0.8334961,0.04541016,-7.93457,10.49805,19.53125,86.50635,2.867432,-156.1761,-20.04167,-44.9,9.583333,1
90524,-0.08056641,1.3925779999999999,0.09472656,9.765625,8.056641,24.71924,87.07214,0.9613037,-151.7157,19.80833,5.525,0.425,1
90824,-0.06542969,0.8002929999999999,0.07763672,-12.08496,-13.73291,-22.33887,86.41296,1.8402100000000001,-151.3422,-21.625,-45.69167,8.333333,1
91124,-0.2836914,1.294434,-0.0034179690000000003,21.60645,-23.86475,-16.17432,85.41321,2.559814,-154.7424,16.61667,4.516667,0.6416666999999999,1
91424,0.04150391,0.9047852,0.03173828,-1.953125,22.94922,16.41846,86.55029,1.9885249999999999,-154.9292,-21.125,-45.30833,9.566667,1
91734,0.06005859,1.045898,0.2832031,-5.554199,-0.3662109,28.13721,86.35803,0.04943848,-149.8151,-24.9,-45.00834,8.366667,1
92004,-0.06884766,0.8676758,0.1533203,-1.403809,-11.96289,-29.11377,85.52856,-0.5493163999999999,-149.1669,14.33333,0.49166669999999996,-0.65,1
92284,0.1191406,1.237305,-0.1435547,9.58252,-16.35742,-8.056641,84.38599,1.686401,-152.4902,16.34167,5.583333,3.666667,1
92504,-0.01269531,0.7905272999999999,0.08007813,-7.8125,23.98682,29.1748,86.49536,2.845459,-154.682,-19.70833,-45.51667,10.40833,1
92734,0.09765625,0.8925780999999999,-0.0859375,5.371094,8.911133,-9.155273,85.46814,1.323853,-149.6393,21.075,-3.816667,-0.375,1
93004,-0.06396484,0.9536133,0.3007813,2.807617,-6.103516,33.93555,87.39624,-1.554565,-147.9364,18.525,2.525,-0.2,1
93214,-0.0390625,0.7905272999999999,0.05908203,-6.652832,-21.42334,-30.0293,86.65466,0.33508299999999996,-149.2053,14.25,-1.1,-1.05,1
93434,-0.09179688,1.394531,0.08789063,20.56885,-18.37158,-1.708984,86.69312,2.136841,-152.4847,-20.26667,-43.14167,11.39167,1
93684,0.04150391,0.9228516,0.1044922,-4.882813,10.80322,28.01514,88.64319,3.059692,-154.3964,14.46667,-0.225,-0.6333333,1
93924,-0.04980469,0.8432617,-0.168457,-10.86426,13.24463,-10.68115,86.93481,0.5932617,-149.0955,19.0,0.075,-2.358333,1
94134,0.1518555,1.024902,0.36474609999999996,-8.239746,-6.530762,12.3291,84.46289,-2.631226,-146.684,-26.54167,-42.1,6.183333,1
94414,-0.06298828000000001,0.8681641,0.1015625,2.319336,-4.394531,-27.28271,84.71558,1.164551,-147.6288,14.66667,0.17500000000000002,-0.3833333,1
94664,-0.07226563,1.217285,-0.09228516,-0.6713867,-2.807617,-4.943848,84.43542,2.977295,-149.5294,-19.575,-43.125,7.875,1
94934,0.020996090000000002,0.8041992,0.06689453000000001,-5.92041,26.30615,21.85059,86.90186,2.6696779999999998,-150.1996,-20.98333,-42.08333,8.558333,1
95224,0.05761719,0.9643554999999999,-0.06201172,8.605957,-4.455566,-6.896973,85.56702,2.021484,-146.7993,20.89167,-3.466667,-0.6916667,1
95474,-0.1025391,1.120605,0.20166019999999998,-5.737305,5.187988,-11.41357,85.51758,-2.504883,-146.0797,15.0,1.9916669999999999,-1.291667,1
95754,-0.1040039,0.8037109,-0.10839839999999999,2.990723,-7.080078,8.056641,82.65015,2.235718,-149.5844,-20.325,-43.76667,6.15,1
96074,-0.12207029999999999,1.133301,0.2758789,-4.150391,-6.591797,0.42724609999999996,86.53931,4.976807,-151.9354,-17.93333,-43.23333,8.241667,1
96394,0.02734375,0.8305663999999999,-0.06884766,-15.80811,-7.69043,-9.58252,83.20496,1.219482,-150.9357,20.49167,-1.175,0.1,1
96624,0.03466797,0.9995117,0.1884766,11.04736,6.591797,15.31982,84.89685,-0.5163574,-150.9302,17.06667,4.525,-0.6583333,1
96854,-0.07128906,0.8330078,0.005859375,-1.7700200000000001,-8.361816,-15.86914,83.80371,2.532349,-151.095,-18.79167,-44.73333,6.475,1
97084,-0.1303711,1.394531,-0.07519531,9.94873,-15.19775,-5.7983400000000005,84.07837,2.6202389999999998,-152.298,16.69167,5.075,2.841667,1
97344,-0.06542969,0.9794921999999999,0.1967773,-10.19287,-7.69043,22.3999,86.19324,5.300903,-156.5112,14.94167,1.316667,-0.6000000000000001,1
97544,0.17382809999999999,1.04834,-0.06494141,15.56396,13.18359,3.356934,83.78174,1.669922,-154.5172,-17.925,-44.75,8.125,1
97784,0.04638672,1.01123,0.3632813,-11.1084,-9.094238,37.65869,85.00122,-1.6479489999999999,-152.8912,15.88333,2.908333,0.05,1
98064,-0.03076172,0.8232421999999999,0.08642578000000001,-2.807617,-19.04297,-26.42822,84.49036,1.389771,-154.5886,13.8,-0.3916667,-1.925,1
98274,-0.15478519999999998,1.290039,-0.0078125,23.31543,-22.88818,-16.78467,83.86963,1.6754149999999999,-156.1212,-15.94167,-44.51667,9.55,1
98524,0.05224609,0.9404296999999999,0.15478519999999998,-8.178711,17.7002,31.00586,85.50659,2.735596,-157.3846,13.65833,1.108333,-1.891667,1
98774,0.06738281,1.107422,-0.06640625,7.873535,5.92041,0.12207029999999999,82.61169,0.4174805,-150.2545,-20.79167,-44.91667,7.325,1
99034,0.18603519999999998,1.050781,0.2905273,-8.666992,-5.493164,16.54053,83.61694,-2.345581,-149.6173,14.38333,2.533333,-0.05,1
99284,-0.04736328,0.7797852,-0.03320313,-5.432129,-6.286621,-0.4882813,81.84814,3.328857,-154.3579,-16.09167,-45.16667,7.975,1
99584,-0.2729492,1.380371,0.1962891,-3.051758,-21.72852,-3.417969,86.05042,5.570068,-159.4666,14.03333,1.791667,-1.166667,1
99894,0.06542969,0.8828125,-0.05322266,-5.554199,3.90625,-12.20703,83.29834,1.389771,-156.6266,-16.1,-43.625,9.183333,1
100204,-0.1772461,1.120117,0.2011719,1.6479489999999999,0.9765625,-21.48438,85.13306,-1.746826,-154.2371,14.7,1.875,0.4666667,1
100524,-0.2680664,0.8383788999999999,-0.07275391,10.55908,-19.71436,5.554199,83.75427,2.477417,-159.1809,20.83333,-3.641667,0.5333333,1
100834,0.12744139999999998,1.010254,0.18652339999999998,-7.629395,-8.666992,21.05713,86.95679,4.718628,-165.174,13.8,0.9333332999999999,-1.291667,1
101064,-0.07421875,0.8149413999999999,-0.09375000000000001,-14.77051,1.464844,0.06103516,84.2926,1.027222,-163.1525,19.6,-1.233333,2.058333,1
102234,0.015625,0.8730469,-0.05078125,-8.850098,-0.24414059999999999,-5.67627,83.70483,1.549072,-169.5575,19.25833,-1.083333,1.475,1
102494,0.009277344,1.017578,0.2753906,-11.96289,1.8310549999999999,20.32471,85.74829,-2.653198,-169.0686,-11.14167,-43.11666,10.375,1
102724,-0.06542969,0.875,0.02441406,3.417969,-17.57813,-20.93506,85.05066,1.587524,-171.0406,13.425,-1.358333,0.15,1
102964,-0.15478519999999998,1.15625,-0.09228516,10.74219,-12.45117,-9.033203,85.96802,2.263184,-173.3807,18.125,1.141667,3.325,1
103184,-0.02783203,0.8930663999999999,0.08251953000000001,-10.98633,14.28223,27.58789,88.08289,3.790283,-176.4349,-3.316667,-41.45,11.8,1
103434,-0.05810547,0.8828125,-0.1040039,-8.789063,-8.911133,-7.751465,85.35828,1.5051269999999999,-172.6886,18.4,-0.7083332999999999,-0.025,1
103704,-0.08691406,1.130371,0.08056641,2.197266,9.765625,26.24512,86.4679,1.071167,-173.1226,17.875,4.766667,-0.725,1
103924,-0.06298828000000001,0.840332,0.03759766,-3.112793,-23.31543,-24.23096,86.2262,2.186279,-175.6659,13.4,-0.45,-1.7083329999999999,1
104204,-0.1645508,1.19043,0.2109375,27.09961,-24.71924,-26.48926,86.87988,3.702393,177.9456,1.275,-41.175,10.68333,1
104494,-0.1357422,0.8022461,0.09228516,-7.263184,0.5493163999999999,29.41895,87.57751,4.367065,176.001,15.6,-0.17500000000000002,-0.5416667,1
104734,0.017089840000000002,1.159668,-0.008300781,5.981445,4.02832,2.319336,86.93481,1.807251,177.4347,18.71667,2.591667,0.425,1
105014,-0.0004882813,0.8901367,0.1279297,-0.6713867,5.126953,-33.44727,86.3855,-0.09338379000000001,178.6157,-1.908333,-42.74166,9.358334,1
105294,-0.05419922,0.8222655999999999,-0.008300781,-9.58252,3.662109,-5.67627,84.64417,3.707886,179.165,16.325,-1.05,1.65,1
105534,0.06494141,1.078125,0.38037109999999996,16.05225,-16.41846,-35.40039,86.95679,5.075684,172.6556,4.85,-39.875,9.441667,1
105840,-0.11865229999999999,0.8525391,-0.05029297,-5.859375,11.53564,7.019043,85.03418,0.9008788999999999,175.3967,0.2166667,-42.09167,8.775,1
106214,-0.08300781,1.05957,0.14697269999999998,-1.89209,-7.93457,-21.91162,86.3031,-1.235962,176.1987,15.63333,1.683333,-0.075,1
106504,-0.01855469,0.8930663999999999,-0.017089840000000002,0.0,-14.16016,-14.16016,85.76477,3.922119,172.9303,14.325,-1.641667,0.9083334,1
106724,0.109375,1.062988,0.34082029999999996,26.06201,-32.34863,-23.49854,89.06616,5.317383,165.7343,8.291667,-38.3,9.408334,1
106954,-0.02929688,0.8447266,0.07861328000000001,-17.27295,4.760742,20.75195,88.22571,4.334106,163.493,13.9,-1.475,-0.6916667,1
107194,0.08007813,0.8774413999999999,-0.1074219,16.41846,-3.601074,-7.507324,87.95105,3.197021,163.4656,21.225,-3.166667,0.15,1
107414,-0.2475586,1.135254,0.1679688,-4.02832,2.441406,-10.19287,89.14856,-1.428223,161.922,4.725,-41.73333,7.825,1
107664,-0.02587891,0.8798828,0.09960938,-7.751465,-8.117676,-23.31543,88.32458,1.4556879999999999,160.9113,14.96667,-0.36666669999999996,-1.466667,1
107874,-0.1196289,1.130371,-0.1767578,-0.3662109,-11.35254,-0.6713867,87.17102,3.191528,159.6753,18.51667,4.183333,4.116667,1
108144,0.0078125,0.8657227,0.04345703,-14.09912,20.44678,18.06641,89.76379,4.345093,158.9941,14.15,-0.8166667,-1.175,1
108454,-0.03466797,1.083496,-0.21386719999999998,6.408691,13.12256,0.42724609999999996,88.89038,2.889404,163.5809,18.875,5.116667,0.7916667,1
108764,-0.06591797,0.8671875,0.1030273,0.6713867,-16.96777,-25.26855,89.05518,2.488403,162.9877,7.316667,-41.10833,8.216666,1
109034,-0.08154297,1.196777,-0.1791992,1.098633,-36.8042,-2.502441,88.83545,4.389038,156.0992,10.78333,-40.425,6.516667,1
109324,-0.10644529999999999,1.200684,0.1640625,2.380371,-28.9917,-3.78418,90.64819,7.619019,147.6013,15.46667,1.183333,-0.9666665999999999,1
109574,-0.001953125,0.8393554999999999,-0.1293945,-8.178711,2.380371,-8.789063,88.35754,3.80127,147.2278,19.175,-2.375,-0.2083333,1
109854,-0.07617188,1.172363,0.2421875,-10.92529,8.789063,11.71875,89.21448,0.1318359,149.7437,10.41667,-41.73333,5.366667,1
110154,-0.1020508,0.8520508,0.026367190000000002,-7.873535,-18.55469,-23.37646,87.45667,4.943848,147.3157,13.6,-0.7416667,-0.8583333999999999,1
110444,-0.3310547,1.086426,0.2675781,6.225586,-4.760742,-27.22168,89.30786,7.926636,141.6138,18.775,-36.875,3.458333,1
110694,0.009765625,0.8754883,0.01855469,-10.19287,37.53662,21.05713,88.20374,4.147339,144.4263,14.66667,-1.108333,-0.9666665999999999,1
110954,-0.11425779999999999,1.336426,0.02001953,-6.835938,20.81299,15.01465,87.24792,3.883667,149.1119,12.475,-40.725,5.616667,1
111184,-0.10107419999999999,1.023438,0.2114258,1.281738,-9.155273,-24.16992,87.14905,1.384277,150.5292,15.675,2.383333,-0.2833333,1
111444,-0.12695309999999999,0.9057617,0.05419922,-0.6713867,-11.77979,-11.71875,86.45691,5.6524659999999995,147.3761,14.65,-0.7833333,1.783333,1
111644,-0.1450195,1.155762,0.06884766,30.45654,-30.33447,-14.64844,87.68738,5.174561,140.1581,18.13333,-37.56667,3.525,1
111884,-0.05908203,0.9589844,0.1040039,-8.178711,-5.92041,17.8833,89.70337,6.899414,135.0989,16.10833,0.4666667,-1.316667,1
112164,-0.02685547,0.9243163999999999,-0.04638672,-12.146,7.080078,3.051758,87.31934,4.597778,135.5109,16.33333,0.0,-1.141667,1
112374,-0.02197266,1.056641,0.06884766,-0.06103516,-10.68115,20.69092,86.20422,3.603516,135.9283,18.35833,-39.23333,0.2833333,1
112634,0.01953125,0.9345703,0.2773438,-7.995605,16.90674,3.723145,85.29785,1.5051269999999999,135.368,16.525,2.075,0.075,1
112874,-0.08447266,0.871582,-0.07958984,1.037598,11.84082,-1.953125,84.36951,5.844727,137.9718,19.16667,-37.63334,1.075,1
113134,-0.2661133,1.159668,-0.2661133,4.211426,-25.5127,-9.094238,85.45166,5.839233,136.7194,15.89167,6.791667,3.591667,1
113384,-0.008789063,0.8999022999999999,0.08789063,-6.164551,21.85059,21.42334,87.37976,6.047974,132.1765,20.89167,-36.475,0.44166669999999997,1
113684,0.005371094000000001,1.233887,-0.12207029999999999,-16.96777,12.87842,5.310059,87.06116,5.097656,135.6866,16.13333,5.55,-0.525,1
113994,-0.08349609,0.8623046999999999,0.1420898,-6.591797,-13.24463,-22.70508,85.86365,3.641968,134.61,20.2,-37.40833,-0.7333333,1
114304,-0.1289063,1.187988,-0.05712891,7.873535,-20.99609,6.347656,83.8092,4.762573,128.6664,21.03333,0.6166667,2.283333,1
114624,-0.026367190000000002,0.9858397999999999,0.19775389999999998,-1.89209,3.234863,18.12744,85.58899,7.937622,121.4758,16.125,0.7000000000000001,-0.9083334,1
114934,0.01464844,0.9086913999999999,-0.052734380000000004,13.3667,-1.342773,0.3662109,84.776,4.031982,125.7111,21.89167,-2.45,0.8250000000000001,1
115184,-0.1474609,1.009277,0.21728519999999998,-8.666992,7.324219,-6.530762,85.57251,0.5603026999999999,126.2823,20.20833,-38.44167,-4.775,1
115424,-0.09960938,0.8754883,0.04736328,-8.850098,16.23535,-12.3291,83.76526,4.9823,127.5183,13.79167,-1.35,0.30000000000000004,1
115654,-0.1479492,1.179688,-0.04931641,10.86426,-4.699707,-3.4790039999999998,83.93005,5.29541,129.765,20.58333,2.8,3.233333,1
115874,-0.1054688,0.9145508,0.1254883,-12.20703,-8.789063,24.10889,85.96802,7.7398679999999995,124.7717,15.85,0.225,-0.2666667,1
116174,0.05810547,0.8471679999999999,-0.10839839999999999,1.6479489999999999,2.380371,1.7700200000000001,84.2926,4.910889,126.134,18.93333,-0.8166667,1.083333,1
116394,-0.06445313,1.206055,0.08789063,9.155273,0.793457,29.1748,86.36902,3.411255,128.3862,18.79167,4.933333,-1.641667,1
116624,-0.03466797,0.855957,0.06835938,-2.258301,-3.356934,-22.52197,84.74304,4.910889,129.4958,21.8,-36.00834,-3.916667,1
116874,-0.2675781,0.9936522999999999,-0.07666016,7.080078,-13.85498,10.19287,83.36975,5.2624509999999995,130.3967,22.75,-0.1333333,1.1,1
117084,-0.1098633,0.8920897999999999,0.31835939999999996,3.78418,-7.8125,-38.0249,86.06689,7.388306,126.189,16.49167,2.85,-0.7166667,1
117314,-0.03808594,0.8227538999999999,-0.1137695,-3.78418,9.338379,-0.4882813,84.75403,4.317627,128.6609,21.34167,-36.34167,-3.533333,1
118554,-0.05078125,0.875,-0.04199219,-6.347656,1.037598,9.521484,85.03418,5.421753,127.9468,14.59167,-1.8666669999999999,1.808333,1
118834,-0.16699219999999998,1.17627,0.2817383,2.685547,-10.0708,26.36719,87.35229,2.460938,127.3975,20.075,3.233333,-1.016667,1
119114,-0.06933594,0.9086913999999999,0.02392578,-7.141113,-11.71875,-17.33398,85.12756,5.2624509999999995,122.7667,23.5,-36.275,-7.366667,1
119394,-0.1318359,1.128418,-0.02294922,0.7324219,-5.004883,-0.12207029999999999,84.83093,4.614258,123.1458,21.525,0.8166667,3.441667,1
119634,0.04199219,0.8891602,0.1679688,-7.995605,18.37158,30.27344,86.23718,7.042236,119.9213,24.3,-36.04167,-7.341667,1
119974,0.1074219,1.07373,-0.03613281,11.47461,14.83154,3.967285,85.71533,4.2462159999999995,125.6946,20.50833,1.758333,0.775,1
120204,0.1201172,1.17041,0.28564449999999997,-4.760742,11.96289,27.771,86.7865,0.054931640000000004,127.2711,15.36667,2.066667,-0.375,1
120394,-0.04736328,0.8481445,0.0390625,-3.845215,-14.52637,-23.25439,85.13855,4.850464,126.1011,13.175,-1.075,-0.4166667,1
120604,-0.1450195,1.154297,-0.0390625,15.93018,-12.57324,-4.02832,85.51758,4.768066,125.788,19.5,2.416667,2.908333,1
120824,-0.009277344,0.8417969,0.1264648,-17.82227,7.93457,23.49854,87.27539,7.888184,120.4486,24.85,-35.08333,-4.925,1
121054,0.08642578000000001,0.7856445,-0.1542969,4.882813,5.065918,-8.972168,86.72058,5.9545900000000005,121.6406,19.41667,-4.7,0.2083333,1
121304,-0.2348633,1.021484,0.2426758,10.19287,-26.06201,46.44775,88.84094,2.741089,123.5577,20.63333,2.525,0.025,1
121524,-0.11279299999999999,0.8422852,-0.056640630000000004,-3.417969,-18.18848,-20.08057,88.07739,5.608521,118.5315,23.83333,-35.70833,-5.325,1
121764,0.009277344,1.039551,-0.1401367,13.91602,9.216309,-0.6713867,86.56677,4.976807,116.9495,21.68333,7.183333,4.175,1
122034,-0.1791992,1.176758,0.14306639999999998,-10.98633,-4.882813,11.2915,88.12683,8.421021,114.6259,14.45,1.966667,-0.17500000000000002,1
122254,-0.008789063,0.8627929999999999,-0.09082031,-3.967285,6.774902,-5.67627,86.20972,4.411011,121.2726,19.53333,-0.8250000000000001,-0.775,1
122534,0.1054688,1.108398,0.2807617,-0.4882813,7.8125,6.774902,86.69861,-0.1812744,123.0304,17.64167,-40.93333,-3.441667,1
122824,-0.1196289,0.8642578,0.07470703000000001,-11.23047,-8.361816,-18.00537,86.92383,3.334351,120.899,14.34167,-0.775,-2.008333,1
123064,0.1035156,1.255859,0.03759766,13.79395,-23.86475,-9.094238,85.79224,4.21875,116.5869,15.34167,4.441667,0.5333333,1
123344,-0.03710938,0.8916016,0.01416016,-7.568359,27.64893,13.00049,87.14355,4.075928,118.3777,21.125,-37.50834,-3.55,1
123624,0.09667969,1.013672,-0.07080078000000001,5.981445,3.78418,-2.13623,85.77576,4.290161,120.108,23.23333,0.008333334000000001,0.8666667,1
123864,-0.1694336,0.9614258,0.1191406,-0.3051758,-7.93457,-30.39551,86.78101,1.7248539999999999,122.2229,19.86667,-37.64167,-2.666667,1
124214,-0.2988281,0.9433594,-0.04931641,8.666992,-26.48926,3.90625,85.05615,4.180298,119.2346,21.70833,0.0,2.583333,1
124434,-0.1074219,1.030762,0.2587891,9.033203,-22.76611,-27.9541,88.11584,7.657471,114.9554,15.54167,2.016667,-0.47500000000000003,1
124624,-0.017089840000000002,0.8364258,0.024902340000000002,-5.67627,11.77979,13.91602,87.13806,4.9493409999999995,115.1367,14.71667,-2.066667,-1.433333,1
124834,0.005859375,1.071289,-0.07128906,7.141113,8.117676,3.356934,86.53381,4.65271,116.0651,18.65,3.5,0.975,1
125054,-0.017089840000000002,0.9667969,0.08935547,0.5493163999999999,2.563477,-17.15088,88.34106,2.406006,118.9819,21.94167,-36.14167,-2.775,1
125284,-0.03173828,0.7871094,-0.11425779999999999,-16.05225,-9.58252,6.591797,85.2594,4.356079,118.9929,18.36667,0.325,0.075,1
125534,-0.2602539,1.157715,0.22167969999999998,27.52686,-29.47998,-24.59717,87.2644,5.092163,114.6423,21.91667,3.15,-0.3416667,1
125754,-0.015625,0.8320312999999999,-0.015136720000000001,-1.098633,21.1792,10.80322,87.65442,4.064941,114.505,24.2,-35.44167,-5.266667,1
126004,-0.022460940000000002,0.8330078,-0.1000977,-13.18359,6.591797,-13.30566,86.91284,4.185791,115.686,19.08333,-3.15,-0.1666667,1
126244,-0.1098633,1.26416,0.1342773,8.544922,14.5874,-20.50781,88.48389,0.8569336,118.916,15.89167,1.475,-1.183333,1
126574,-0.01611328,1.147461,-0.2514648,7.324219,-23.98682,-2.197266,87.44568,4.416504,117.0374,18.025,5.65,4.3,1
126884,-0.04052734,0.8691405999999999,0.009277344,-12.63428,17.51709,15.19775,90.8844,5.454712,113.4778,24.30833,-34.40833,-3.125,1
127184,-0.02832031,1.2158200000000001,-0.08056641,-0.4882813,3.2958979999999998,7.995605,89.45618,4.740601,115.3235,16.84167,4.3,0.05,1
127514,-0.04589844,0.8754883,0.03466797,-13.42773,-5.981445,-13.3667,90.02747,3.169556,115.0433,14.16667,-0.6333333,-2.516667,1
127794,-0.06738281,1.195801,-0.011230470000000001,8.422852,-20.75195,-5.554199,87.28088,3.927612,110.7751,17.08333,4.666667,2.05,1
128094,-0.0009765625,0.8891602,0.02001953,-6.225586,20.99609,14.83154,89.58252,4.42749,109.5612,23.80833,-35.11666,-6.166667,1
128404,-0.01025391,1.274902,-0.008300781,-2.258301,0.0,18.55469,88.73657,3.636475,112.6978,17.925,4.583333,-0.3333333,1
128774,-0.05029297,0.7578125,-0.07714844,-6.286621,-5.187988,-2.563477,87.96753,4.44397,113.3514,22.86667,-35.10833,-5.275,1
129034,-0.08251953000000001,1.267578,0.01464844,15.99121,-12.45117,-16.72363,88.36304,4.669189,110.3082,18.00833,3.825,1.466667,1
129284,-0.01171875,0.8325195,0.04345703,-11.84082,22.09473,14.22119,89.32434,4.191284,108.468,13.53333,-2.158333,-1.166667,1
129554,0.11474609999999999,1.080078,-0.07470703000000001,2.807617,8.972168,-1.464844,88.34106,4.295654,109.7974,20.51667,0.7583333,0.8583333999999999,1
129754,0.09667969,1.084473,0.2387695,-7.324219,14.03809,33.69141,88.80249,-0.08789063,111.5936,15.825,1.933333,-0.1416667,1
129974,-0.03808594,0.7480469,-0.09765625,-6.713867,-2.563477,2.929688,85.77026,4.235229,112.11,22.95833,-35.675,-7.166667,1
130224,-0.1699219,1.024902,0.24072269999999998,22.88818,-26.61133,-18.79883,88.33557,4.729614,108.2813,21.0,3.008333,0.4166667,1
130514,-0.04394531,0.890625,-0.03613281,-11.23047,27.64893,7.324219,88.396,3.537598,110.528,22.80833,-35.475,-6.075,1
130794,-0.022460940000000002,1.056641,0.36425779999999996,8.850098,15.80811,28.25928,88.18726,2.664185,112.7637,21.20833,-36.84167,-5.458333,1
131074,-0.03417969,0.9042969,0.1000977,-3.845215,-1.8310549999999999,-22.3999,88.34106,2.559814,115.1367,15.19167,0.1916667,-1.225,1
131324,0.03369141,1.202637,-0.11865229999999999,5.310059,-20.62988,-5.859375,86.12732,4.048462,111.6376,23.51667,-35.14167,-7.741667,1
131594,0.01953125,0.8676758,0.10644529999999999,-5.554199,15.50293,21.1792,87.63245,5.229492,108.4186,23.69167,-34.71667,-7.541667,1
131904,0.03076172,0.8642578,-0.12744139999999998,0.6103516,8.605957,-12.39014,87.16003,3.691406,112.0221,18.60833,-3.508333,-0.8916666,1
132134,-0.1923828,1.258789,0.1699219,0.5493163999999999,18.98193,-13.06152,87.76978,0.6262207,113.9447,17.35,1.608333,0.675,1
132414,-0.04931641,0.8291016,-0.1098633,-12.45117,0.0,5.859375,85.6604,4.32312,112.3572,22.6,-35.64167,-6.825,1
132734,-0.22216799999999998,1.172852,0.269043,6.469727,-7.629395,-15.99121,88.67065,6.981812,108.7482,24.71667,-33.675,-7.183333,1
133234,-0.020996090000000002,1.14502,-0.01611328,3.601074,9.765625,26.97754,87.51709,3.202515,114.6588,16.53333,4.65,-1.0,1
133514,-0.09082031,0.8544921999999999,0.07275391,-10.62012,-16.41846,-21.1792,86.69861,4.207764,114.6149,22.31667,-35.41667,-5.658333,1
133744,-0.2504883,1.064941,-0.044921880000000004,10.98633,-24.71924,-2.807617,85.24841,4.746094,111.3025,21.18333,2.9,3.35,1
133984,-0.1459961,1.205566,0.253418,9.033203,-15.74707,-16.54053,88.82996,7.871704,107.9517,15.875,1.383333,0.1166667,1
135174,-0.1914063,1.27002,0.1923828,4.882813,-5.67627,-9.94873,90.14832,7.871704,104.0515,14.60833,1.341667,-0.8583333999999999,1
135394,-0.02929688,0.855957,-0.03222656,-6.408691,21.3623,8.728026999999999,88.92334,4.432983,106.8915,14.14167,-2.75,-1.341667,1
135614,-0.10498049999999999,1.087891,0.3398438,11.04736,8.178711,24.59717,89.46716,2.966309,109.5776,22.09167,-35.8,-6.15,1
135864,-0.03564453,0.9853516,0.08642578000000001,-4.455566,-6.774902,-21.3623,89.47815,2.763062,109.4458,13.85,0.525,-2.35,1
136134,-0.15917969999999998,0.8510742,-0.1308594,-6.04248,-0.9765625,14.52637,85.48462,4.240723,109.4348,18.95833,-2.716667,1.025,1
136344,0.152832,1.128906,0.3359375,27.89307,-11.35254,-17.45605,88.52234,5.015259,107.4518,20.125,2.466667,0.04166667,1
136564,-0.07958984,0.8486328,-0.041015630000000004,-13.91602,18.37158,6.103516,88.0719,3.3728029999999998,110.9729,15.85,-0.9416667,-0.75,1
136844,-0.22851559999999999,1.09668,0.40283199999999997,11.23047,18.37158,28.74756,88.51685,2.471924,114.9664,20.36667,-36.625,-3.058333,1
137104,0.02832031,0.9409179999999999,0.05566406,-7.507324,-8.056641,-14.89258,89.41223,2.416992,115.3949,14.00833,-0.375,-0.8416665999999999,1
137354,-0.10693359999999999,1.242188,-0.1264648,0.4882813,-12.57324,-5.92041,88.42896,4.262695,112.89,23.15,-34.8,-4.508333,1
137654,-0.02587891,0.9155272999999999,0.05224609,-8.056641,18.79883,17.8833,89.86267,4.504395,111.1816,13.975,-1.075,-1.7,1
137994,-0.0859375,1.223633,-0.15869139999999998,-2.13623,-1.6479489999999999,7.263184,88.16528,3.922119,114.5325,16.74167,5.55,-0.275,1
138264,-0.009765625,0.9428711,0.06445313,-3.356934,-7.141113,-14.22119,89.20898,2.631226,114.4611,22.04167,-35.93333,-3.033333,1
138574,0.02001953,1.235352,-0.15625,-2.258301,-2.868652,-7.019043,87.86865,4.383545,110.451,17.15833,5.225,4.008333,1
138804,0.07226563,1.082031,0.1416016,5.67627,-0.8544921999999999,17.51709,90.5658,7.097168,107.1881,15.73333,0.40833329999999995,-0.7583333,1
139034,-0.004394531,0.8808594,-0.07324219,-4.455566,1.89209,-11.59668,87.85217,4.3396,110.6378,24.075,-35.05,-5.075,1
139274,0.006347656,0.9848633,0.21337889999999998,8.728026999999999,18.79883,27.09961,89.42871,2.043457,112.2968,19.45833,2.091667,1.075,1
139534,-0.01464844,0.9355469,0.07714844,-5.371094,9.460449,-12.75635,89.71436,2.389526,115.0159,15.01667,-0.2583333,-0.6916667,1
139754,-0.1376953,0.8393554999999999,-0.08984375,-3.4790039999999998,-15.80811,5.310059,88.02795,3.674927,113.6481,18.79167,-3.958333,-0.225,1
139964,0.06103516,1.135254,0.1386719,0.8544921999999999,-0.1831055,16.41846,90.78003,6.624756,108.056,25.81667,-33.73333,-4.4,1
140214,-0.005859375,0.8779296999999999,-0.03076172,-12.02393,12.45117,2.685547,88.21472,4.312134,111.1432,15.21667,-1.491667,-0.55,1
140454,-0.1464844,1.098633,0.2617188,7.873535,-3.967285,29.11377,88.72559,2.114868,111.4178,23.15,-36.69167,-4.433333,1
140694,-0.028808590000000002,0.9038086,0.09033203000000001,3.2958979999999998,-7.8125,-18.49365,88.28613,3.3728029999999998,110.3082,14.69167,0.3083333,-1.166667,1
140984,0.06005859,1.157227,-0.137207,7.446289,-25.87891,-6.347656,86.19324,4.746094,104.7052,27.06667,-34.675,-10.23333,1
141284,-0.1191406,0.8745117,0.09423828000000001,-4.821777,12.87842,17.57813,89.06067,5.50415,102.8595,14.79167,-0.5166666999999999,-1.033333,1
141584,-0.121582,1.253906,-0.1708984,-3.845215,7.8125,5.187988,88.40149,4.185791,104.7272,26.28333,-35.725,-8.108334,1
141884,-0.004882813000000001,0.9204102,0.05859375,-5.371094,-6.713867,-20.08057,88.03345,2.576294,104.3427,14.03333,-0.05833333,-1.783333,1
142214,-0.03759766,1.164063,-0.1572266,2.868652,-14.4043,-1.89209,85.68787,4.059448,103.2495,17.95,5.908333,3.625,1
142494,-0.03662109,0.8945312999999999,0.05322266,-9.82666,31.31104,22.64404,89.29688,4.526367,103.3868,27.90833,-36.11666,-7.608333,1
142764,0.056640630000000004,0.9125977,-0.1054688,3.540039,-1.159668,-16.78467,87.91809,3.482666,107.3914,20.30833,-5.066667,-1.466667,1
143044,-0.1445313,1.158691,0.2470703,-3.051758,2.990723,-11.90186,86.36902,0.5987549,105.3314,16.01667,1.7083329999999999,-0.325,1
143264,-0.06542969,0.7456054999999999,-0.05859375,-4.516602,-5.737305,12.26807,82.95227,4.262695,103.6121,28.08333,-36.34167,-11.7,1
143504,-0.1733398,1.11084,0.4414063,30.70068,-16.72363,-30.09033,85.61646,4.372559,99.9646,23.18333,3.375,0.1,1
143764,-0.13134769999999998,0.9375,0.07617188,-2.563477,25.08545,30.45654,88.20923,4.691162,100.7446,13.84167,-0.49166669999999996,-1.475,1
143974,-0.06152344,0.7929687999999999,-0.175293,4.455566,5.554199,-10.25391,86.95129,2.839966,105.1392,19.16667,-2.3,-0.7666666999999999,1
144194,-0.13525389999999998,1.216797,0.16650389999999998,7.93457,20.69092,-14.77051,88.93433,-0.7525634999999999,108.2648,24.15833,-36.76667,-4.35,1
144444,-0.1191406,0.8007812999999999,-0.03417969,-26.48926,-2.929688,-10.98633,87.1106,3.411255,109.4458,12.725,-0.8250000000000001,-0.3416667,1
144694,0.01269531,1.067383,0.2963867,14.64844,3.234863,-36.49902,89.98352,5.83374,106.1115,28.15833,-32.75,-5.85,1
145044,-0.07080078000000001,0.7695312999999999,-0.07763672,-4.455566,4.333496,-3.90625,88.10486,3.6859129999999998,108.6273,17.9,-1.4583329999999999,0.9166667,1
145354,-0.03369141,1.058594,0.3115234,-5.554199,1.220703,34.91211,89.15405,1.246948,108.8251,17.44167,2.433333,-0.9833333999999999,1
145624,-0.07324219,0.8056641,-0.06201172,-2.502441,-10.55908,-2.746582,86.77551,4.680176,107.6056,16.925,0.1666667,0.1166667,1
145904,-0.2573242,1.016113,0.30908199999999997,5.737305,0.6713867,-38.94043,89.73083,7.88269,100.5469,30.275,-31.19167,-8.675,1
146184,-0.030273440000000002,0.8144530999999999,0.005859375,-6.591797,35.46143,19.04297,88.93982,4.147339,103.4418,13.69167,-2.266667,-1.683333,1
146444,-0.052734380000000004,1.192871,0.048828130000000004,5.065918,7.385254,25.5127,88.61023,3.466187,106.8475,18.81667,4.783333,0.7166667,1
146724,-0.1020508,0.8510742,0.08447266,-11.90186,-23.92578,-14.34326,87.63245,3.850708,102.9639,28.35,-33.73333,-8.666667,1
146994,-0.1601563,1.040039,0.01855469,11.65771,-25.6958,1.708984,85.979,3.35083,98.95386,19.81667,5.325,3.875,1
147274,-0.05078125,0.9267578,0.07080078000000001,-0.1831055,23.49854,26.42822,89.2749,4.345093,100.1184,15.43333,-0.2333333,-1.8333329999999999,1
147494,-0.08349609,1.093262,-0.07666016,-4.02832,16.23535,-0.3662109,87.44019,3.010254,107.6825,26.70833,-34.7,-4.558333,1
147724,-0.15917969999999998,1.160156,0.215332,-6.164551,10.37598,-2.319336,88.43994,-0.5163574,109.8962,15.83333,1.841667,-0.1083333,1
147994,-0.10693359999999999,0.8217772999999999,0.041015630000000004,-7.568359,-18.98193,-17.02881,87.45117,3.746338,108.4955,13.20833,-1.216667,-1.383333,1
148204,0.005859375,1.187012,-0.08544922,12.02393,-9.70459,-7.69043,86.79199,4.454956,105.3918,18.35833,5.041667,3.9,1
148424,-0.08154297,0.8652344,0.08300781,-7.507324,10.86426,22.15576,89.23096,6.130371,103.233,29.28333,-32.99166,-4.658333,1
148674,-0.009765625,0.8359375,-0.1474609,0.793457,-0.6713867,-11.04736,87.25891,4.279175,105.1666,18.74167,-1.616667,-0.1166667,1
148914,-0.1323242,1.184082,0.20996089999999998,-4.516602,7.69043,0.5493163999999999,88.8739,0.6427001999999999,107.1716,25.625,-35.975,-2.258333,1
149154,-0.1000977,0.8647461,0.05175781,-8.850098,-18.18848,-11.59668,88.04993,4.680176,103.9526,13.66667,-1.225,-0.40833329999999995,1
149444,-0.2045898,1.223145,0.1342773,31.18896,-19.53125,-29.60205,87.5061,5.625,99.83276,30.93333,-32.30833,-7.183333,1
149734,-0.02050781,0.9414062999999999,-0.01074219,-2.624512,22.46094,13.97705,88.01147,4.724121,96.52039,13.80833,-1.6,-1.6,1
150044,-0.1054688,1.077148,0.08642578000000001,9.643555,8.666992,19.16504,88.76404,3.109131,103.288,27.125,-35.25,-3.275,1
150344,-0.06494141,0.8642578,0.09179688,-16.41846,-22.03369,-14.83154,87.08862,4.493408,101.4532,15.15,-0.75,-1.858333,1
151644,0.03710938,0.9335937999999999,0.08447266,-6.896973,-2.319336,-17.7002,86.70959,2.526855,100.2008,13.83333,0.1666667,-1.325,1
151874,-0.04003906,1.1791989999999999,-0.20166019999999998,8.666992,-8.972168,-2.685547,85.45715,3.526611,98.88245,28.825,-34.76667,-6.958333,1
152154,-0.02294922,0.9091796999999999,0.05810547,-9.033203,41.50391,23.13232,88.56628,3.850708,99.82727,27.48333,-34.9,-3.3,1
152454,-0.09033203000000001,0.8071288999999999,-0.09863281,-1.403809,17.51709,-10.86426,85.95703,3.087158,106.7761,18.15833,-0.8666667,-0.7083332999999999,1
152744,-0.05908203,0.9521484,0.1113281,3.845215,-13.42773,-21.1792,88.13782,1.477661,109.704,15.20833,0.4666667,-0.8833333,1
153034,-0.06982422,0.7890625,-0.06103516,-3.173828,-18.67676,4.394531,85.95703,4.119873,105.7269,18.9,-0.6833332999999999,1.5,1
153244,-0.08837891,1.120117,0.1791992,16.90674,-20.1416,-14.4043,87.71484,4.411011,101.6895,18.90833,3.758333,0.7000000000000001,1
153464,-0.01953125,0.9594727,0.04980469,-7.995605,5.004883,8.605957,88.43445,4.487915,99.83276,27.125,-34.84167,-3.333333,1
153694,-0.001953125,0.9663086,0.01220703,1.586914,-9.94873,-8.666992,85.67688,4.570313,98.93188,18.35,-3.441667,0.1416667,1
153944,0.15917969999999998,0.9780272999999999,0.2954102,-6.835938,-6.04248,1.403809,85.77026,3.010254,98.47046,26.475,-35.9,-4.708333,1
154224,-0.159668,0.9687500000000001,0.1362305,-4.211426,-49.1333,-8.850098,85.69885,3.911133,93.59802,16.56667,-0.1166667,-1.258333,1
154464,-0.22119139999999998,0.8305663999999999,-0.08056641,13.18359,-115.1123,-2.441406,83.22693,3.7408449999999998,77.83813,18.175,-1.791667,0.47500000000000003,1
154674,-0.144043,1.104492,0.1791992,23.13232,-71.5332,-25.39063,85.70984,3.636475,56.69495,18.8,1.133333,1.675,1
154894,0.05419922,0.9072266,-0.002441406,-12.39014,-75.62256000000001,3.540039,85.06165,2.48291,32.32727,14.43333,-1.191667,-0.35000000000000003,1
155174,0.1171875,1.115723,0.1196289,21.30127,-47.97363,-4.333496,84.44092,2.856445,14.19434,9.333333,-32.24166,-54.38334,1
155434,-0.07080078000000001,1.028809,0.1577148,7.019043,-88.1958,-18.49365,87.02271,2.5872800000000002,0.1812744,16.29167,1.591667,-0.35833329999999997,1
155684,0.0,0.9501953,-0.01416016,1.464844,-78.49121,-17.21191,84.50134,8.009033,-32.42065,-18.16667,-33.61666,-57.33333,1
155984,0.04736328,1.250977,0.31787109999999996,37.04834,-55.17578,-18.12744,87.2644,7.476196,-50.33936,19.81667,3.183333,0.8083332999999999,1
156324,0.1015625,0.9565429999999999,0.0703125,-5.981445,-24.4751,11.23047,87.23694,4.65271,-61.22681,14.20833,-0.4583333,-1.683333,1
156594,0.04736328,1.102539,-0.21289059999999999,-9.887695,12.81738,5.432129,85.16602,4.092407,-62.92419,-38.59167,-35.425,-46.65833,1
156904,-0.1181641,0.9697266,0.1835938,1.7700200000000001,-21.78955,-23.68164,84.95178,5.427246,-68.32947,15.5,2.283333,0.36666669999999996,1
157134,-0.03466797,0.8979492,0.01953125,-3.845215,-15.93018,-1.098633,83.05664,8.459473,-74.59167,17.66667,-1.616667,1.116667,1
157354,0.03515625,1.263672,0.1308594,22.94922,-41.25977,-10.31494,83.79272,7.393799,-79.59045,17.25833,5.908333,1.525,1
157574,-0.026367190000000002,0.8569336,0.0859375,1.037598,-2.746582,23.31543,85.7428,5.641479,-83.71033,-44.39167,-37.80833,-31.31667,1
157834,0.05859375,0.9453125,-0.1035156,15.56396,1.953125,-0.8544921999999999,85.61096,3.883667,-82.59521,21.86667,-3.575,0.0,1
158074,-0.18261719999999998,1.070313,0.3603516,-0.793457,-13.24463,16.60156,86.67664,1.8402100000000001,-80.62866,16.575,3.416667,-0.3083333,1
158294,-0.121582,0.8632812999999999,0.07177734,-11.96289,-10.19287,-15.56396,84.35852,5.635986,-82.18872,-44.23333,-37.10833,-32.1,1
158544,-0.1601563,1.226563,-0.1201172,5.67627,-23.01025,0.9765625,82.97974,5.180054,-83.24341,22.25,1.808333,3.1,1
158784,-0.046875,0.9062500000000001,0.1772461,-4.333496,12.02393,26.79443,84.66614,6.591797,-86.00647,-45.03333,-37.25834,-28.425,1
159024,-0.06152344,0.8203125,-0.09082031,1.037598,14.77051,1.6479489999999999,83.93555,2.757568,-81.76025,19.25,-0.9916666999999999,1.125,1
159314,0.07421875,0.9013671999999999,0.3286133,-11.47461,-13.30566,6.225586,85.00671,0.6536865,-77.99744,-47.61666,-33.11666,-32.49166,1
159634,-0.03125,0.8432617,0.02294922,-4.211426,7.568359,-4.455566,82.79846,5.048218,-78.65662,16.09167,-1.266667,1.3,1
159914,-0.03515625,0.9980469,0.34082029999999996,14.95361,-10.43701,-25.57373,84.90234,7.047729,-79.74976,-43.71667,-37.325,-30.01667,1
160224,-0.04052734,0.8476562999999999,-0.07568359,-2.01416,8.605957,11.53564,84.28711,3.977051,-78.95874,15.18333,-1.716667,0.8666667,1
160544,0.04980469,1.020996,0.2353516,-2.746582,0.7324219,12.93945,86.79749,1.208496,-78.98621,16.98333,3.65,-1.233333,1
160824,-0.09765625,0.8500977,0.052734380000000004,-12.39014,-1.098633,-15.31982,83.44666,4.822998,-78.34351,-45.175,-35.33333,-31.825,1
161094,-0.1396484,1.249512,-0.1230469,8.544922,-17.15088,-3.845215,82.94128,4.136353,-77.5415,20.21667,3.625,1.875,1
161374,-0.11669919999999999,0.859375,0.1611328,1.7700200000000001,28.32031,24.10889,84.08936,5.910645,-76.9812,16.26667,0.525,0.2083333,1
161584,-0.06787109,0.8833008,-0.07080078000000001,-1.525879,5.187988,2.13623,83.51257,3.724365,-73.21289,17.28333,-0.7833333,0.6583333,1
161804,-0.05175781,0.8764647999999999,0.30957029999999996,-7.141113,0.06103516,11.1084,84.41345,0.7250977,-72.38342,-46.99166,-32.925,-32.96667,1
162064,-0.06835938,0.871582,0.1113281,-2.441406,11.59668,-25.32959,83.41919,3.411255,-72.21313,14.71667,0.6000000000000001,-0.1416667,1
162304,-0.1396484,0.8999022999999999,-0.07568359,3.540039,12.51221,11.96289,82.61169,5.690918,-69.31274,19.94167,-2.083333,0.2166667,1
162554,-0.2685547,0.9814453,0.2836914,1.89209,13.5498,-17.76123,84.80347,7.075195,-74.0094,-43.53333,-35.875,-30.89167,1
162834,-0.008300781,0.8989258,0.020996090000000002,-8.117676,37.17041,18.61572,84.71558,4.059448,-69.59839,15.4,-1.625,-0.8,1
163084,-0.04199219,1.379395,0.03320313,0.0,-1.6479489999999999,11.1084,84.85291,3.004761,-65.98389,15.15833,4.358333,-1.341667,1
163344,-0.078125,0.871582,0.09570313,-1.7700200000000001,-11.47461,-27.28271,83.82019,4.608765,-67.89001,-42.88334,-34.46667,-34.475,1
163594,-0.05615234,0.8774413999999999,-0.08935547,3.051758,-1.525879,6.774902,82.50732,6.421509,-69.36768000000001,22.60833,-1.8666669999999999,-0.6000000000000001,1
163834,-0.1474609,1.032227,0.203125,-4.02832,-11.23047,4.455566,84.90234,8.690186,-74.43787,14.13333,1.858333,0.075,1
164174,0.09082031,0.9394530999999999,-0.1030273,16.35742,-10.19287,-3.2958979999999998,84.82544,3.960571,-76.62415,26.9,-0.3833333,-0.2916667,1
164444,0.05419922,0.9541016,0.2036133,-6.9580079999999995,9.70459,-20.1416,85.08911,0.054931640000000004,-76.9812,-46.075,-33.05833,-27.475,1
164714,-0.10058589999999999,0.7993163999999999,0.03271484,-10.25391,7.873535,-13.30566,82.99622,4.779053,-75.11353,14.1,-2.183333,0.6916667,1
164964,-0.2587891,1.12793,0.1289063,23.74268,-10.86426,-26.42822,85.55603,6.641235,-74.77295,-41.3,-36.90833,-27.15,1
165264,-0.046875,0.859375,-0.02392578,-3.90625,10.25391,19.9585,85.03418,3.762817,-73.82263,15.15,-0.8916666,0.225,1
165644,0.1713867,1.030273,0.2563477,-3.601074,-3.540039,-1.89209,85.177,-0.2197266,-72.61963,-45.4,-33.58333,-29.675,1
165864,-0.05175781,0.8315429999999999,0.02001953,-0.24414059999999999,0.3662109,-24.6582,84.84192,4.015503,-72.48779,-42.175,-36.23333,-29.94167,1
166084,-0.2348633,1.098633,-0.06494141,2.624512,5.92041,0.4882813,84.11133,4.779053,-70.72449,22.5,0.6833332999999999,1.416667,1
166324,-0.01220703,1.008301,0.35742189999999996,2.563477,-6.347656,-22.58301,85.97351,7.498169,-75.08057,16.08333,2.966667,-0.125,1
166534,-0.06982422,0.8901367,0.0546875,-3.662109,16.29639,19.47021,85.28137,5.300903,-73.03162,15.14167,-0.6083333,-0.49166669999999996,1
166754,0.009765625,1.1791989999999999,-0.1845703,1.953125,14.83154,11.59668,85.2594,2.702637,-68.98315,18.425,4.341667,0.5916667,1
168004,0.09619141,1.026367,-0.03662109,-1.586914,9.033203,4.455566,87.56104,3.614502,-69.74121,21.74167,-0.525,-0.36666669999999996,1
168234,-0.009765625,0.9067383,0.3046875,-7.324219,-21.11816,18.31055,86.73706,1.680908,-68.34045,17.06667,2.483333,-0.4166667,1
168444,-0.08056641,0.8798828,0.10644529999999999,-2.868652,-9.399414,-19.104,85.84717,3.729858,-69.66431,15.46667,0.03333333,-0.9833333999999999,1
168654,-0.04150391,0.8686522999999999,-0.09960938,-8.239746,-13.85498,8.361816,83.4082,5.498657,-72.68005,19.85,-1.3333329999999999,0.75,1
168874,-0.17871089999999998,1.100586,0.199707,-1.403809,12.20703,1.037598,86.5448,6.690674,-76.15723,15.03333,1.208333,-0.4666667,1
169204,-0.001953125,0.8706054999999999,-0.09814453000000001,2.441406,-3.845215,-3.4790039999999998,85.22644,2.559814,-72.43286,21.06667,-1.383333,0.5416667,1
169474,-0.07763672,1.020996,0.2241211,-13.73291,7.93457,-3.234863,86.39099,-0.2911377,-71.47156,15.10833,1.475,-1.141667,1
169784,-0.1035156,0.7841796999999999,-0.1230469,6.652832,3.112793,8.422852,83.38074,5.421753,-67.18689,-38.99166,-36.31667,-33.33333,1
170084,-0.11865229999999999,1.171387,0.2241211,-9.399414,4.211426,7.019043,87.42371,8.184814,-69.33472,-37.725,-38.08333,-30.69167,1
170364,-0.04785156,0.8383788999999999,-0.05761719,2.258301,16.78467,12.3291,85.80872,3.674927,-66.42334,15.45,-1.475,1.558333,1
170604,-0.10693359999999999,0.9990234,0.2915039,-4.760742,-8.361816,16.11328,87.58301,1.40625,-66.1322,-41.55,-34.4,-32.00834,1
170944,-0.03613281,0.7939453,-0.01806641,-1.403809,-5.92041,-13.79395,85.30884,5.454712,-67.13196,14.45,-1.766667,0.375,1
171154,-0.1699219,1.335938,-0.2158203,8.911133,-23.07129,-2.380371,86.43494,5.427246,-67.20337,17.78333,5.975,2.683333,1
171364,-0.05419922,1.067383,0.1889648,-8.728026999999999,0.4882813,18.9209,88.02246,8.289185,-71.13647,14.2,1.133333,-1.316667,1
171574,-0.08349609,0.8481445,-0.08691406,-6.530762,8.056641,5.67627,85.85815,3.960571,-68.44482,16.51667,-1.291667,1.858333,1
171794,-0.07861328000000001,0.9804687999999999,0.2954102,-8.728026999999999,-13.3667,19.59229,87.16553,1.664429,-68.45581,-41.09167,-35.00834,-31.03333,1
172034,-0.09960938,0.8920897999999999,0.09033203000000001,-7.751465,-17.94434,-28.93066,85.68237,4.504395,-69.80713,13.85833,-0.2583333,-0.9916666999999999,1
172284,-0.16601559999999999,1.452637,-0.02929688,11.77979,-21.11816,-3.2958979999999998,84.34753,6.026001,-72.10327,-37.95833,-37.475,-29.7,1
172524,-0.1567383,0.9677734,0.19775389999999998,-6.591797,-0.12207029999999999,22.88818,85.78674,7.717896,-74.48181,-38.3,-37.725,-28.0,1
172764,-0.11621089999999999,0.8242187999999999,-0.1538086,2.380371,6.408691,6.896973,84.98474,3.493652,-72.36694,20.05,-1.233333,1.591667,1
173024,0.10644529999999999,0.9648437999999999,0.2978516,-16.60156,6.286621,19.22607,86.64368,-0.5218505999999999,-70.33997,-41.60833,-34.675,-30.14167,1
173294,-0.04980469,0.7402344,-0.08398438,-3.356934,6.835938,7.446289,84.44092,4.515381,-67.21985,-38.35833,-36.31667,-31.91667,1
173584,-0.1870117,0.9990234,0.2192383,18.31055,-29.66309,-21.1792,87.30835,5.811768,-69.89502,20.80833,4.408333,-0.125,1
173824,-0.05029297,0.8442383,-0.05517578,-9.155273,31.49414,12.51221,86.47339,3.279419,-65.54443,14.25,-1.233333,-0.6166667,1
174104,-0.002929688,1.083984,0.2470703,5.371094,-5.371094,19.16504,87.92908,1.323853,-64.93469,-40.13334,-34.95833,-31.95833,1
174384,-0.1259766,0.8193359,0.09716797,-7.263184,-2.075195,-27.9541,86.18225,3.383789,-64.90173,13.33333,-0.36666669999999996,-0.05833333,1
174654,-0.02001953,1.406738,-0.05517578,23.25439,-29.05273,-10.0708,87.52808,5.273438,-69.15894,-36.88334,-38.73333,-27.55,1
174964,0.03662109,0.8203125,-0.02783203,-1.159668,6.774902,19.89746,87.65442,5.19104,-74.21814,14.0,-2.525,-0.8833333,1
175194,-0.01953125,1.242188,-0.2338867,18.06641,3.662109,34.11865,89.18152,3.422241,-73.72925,18.425,2.333333,0.2916667,1
175384,0.02197266,1.128906,0.20214839999999998,-14.22119,3.90625,-6.896973,89.14307,-0.7690429999999999,-71.0321,13.65,1.725,-2.35,1
175594,-0.006835938000000001,0.8193359,-0.03125,-7.080078,-1.8310549999999999,-18.55469,85.84717,5.119629,-70.36194,14.15833,-1.533333,1.775,1
175804,-0.1420898,1.265625,-0.2275391,14.46533,-19.47021,1.281738,87.15454,5.300903,-70.41687,16.975,4.358333,2.458333,1
176024,0.017089840000000002,0.8051758,0.03808594,-9.82666,16.05225,20.26367,88.56628,5.427246,-71.21338,-38.08333,-37.475,-27.93333,1
176264,0.08935547,1.036621,-0.1420898,19.40918,-5.187988,2.929688,88.797,4.196777,-70.19714,25.625,-0.125,0.2583333,1
176524,-0.026367190000000002,0.8989258,0.12060549999999999,-6.9580079999999995,0.7324219,-29.90723,88.0719,0.7800292999999999,-71.09253,14.21667,0.9666665999999999,-1.108333,1
176814,-0.03759766,0.8154296999999999,-0.015136720000000001,-10.86426,4.516602,-2.319336,85.07263,5.042725,-70.98267,17.61667,-1.416667,1.358333,1
177024,-0.10644529999999999,1.442871,0.028808590000000002,14.70947,-15.31982,-10.92529,85.8252,4.520874,-70.2301,16.99167,4.8,0.31666669999999997,1
177254,0.01416016,0.8222655999999999,0.04736328,-6.896973,32.59277,23.4375,86.53381,3.422241,-69.3512,-39.33333,-35.725,-30.89167,1
177524,-0.08496094,1.373047,0.01074219,11.96289,-4.882813,28.01514,88.19275,2.136841,-65.26978,-39.55833,-35.81667,-30.79167,1
177834,-0.009277344,0.9121094,0.1030273,-5.249023,-12.45117,-33.87451,87.63245,1.7248539999999999,-67.07703,15.175,0.15833329999999998,-0.1666667,1
178064,-0.1318359,1.055664,-0.04931641,12.26807,27.16064,5.371094,87.29187,5.218506,-72.8009,22.475,0.5750000000000001,1.316667,1
178334,-0.06445313,0.9897461,0.1015625,-4.699707,2.624512,23.13232,88.77502,6.959839,-70.61462,-37.51667,-37.91667,-28.05833,1
178614,-0.078125,0.7812500000000001,-0.1113281,-6.835938,1.098633,4.699707,85.95703,3.4002689999999998,-69.41711,19.21667,-1.058333,1.425,1
178884,0.0546875,0.9736328,0.27050779999999996,-9.887695,5.126953,11.59668,88.1543,0.027465820000000002,-68.68652,14.95833,1.233333,-0.5083333,1
179204,-0.05712891,0.8564453,-0.09423828000000001,-14.95361,29.05273,-0.9765625,84.47388,5.251465,-64.34143,20.98333,-0.85,1.8666669999999999,1
179444,-0.22119139999999998,1.177734,0.3115234,-3.173828,-18.37158,-16.96777,88.48389,9.124146,-64.89624,-34.99166,-38.59167,-32.075,1
179674,-0.0390625,0.8378905999999999,0.008789063,-1.6479489999999999,7.324219,13.67188,86.03394,6.586304,-65.85754,13.45833,-2.183333,0.8416665999999999,1
179914,0.04003906,1.313965,-0.08642578000000001,2.197266,11.53564,22.82715,87.5885,4.938354,-63.19885,19.00833,4.833333,-0.075,1
180134,-0.09228516,0.8374022999999999,0.13476559999999999,-4.821777,1.159668,-22.64404,86.20422,2.768555,-66.04431,-39.46667,-35.49166,-33.0,1
180374,-0.056640630000000004,0.8012695,-0.06738281,-3.234863,4.333496,11.1084,84.58923,5.377808,-66.50024,19.13333,-0.9500000000000001,0.8166667,1
180654,-0.08837891,1.273926,0.04296875,34.05762,-10.31494,-26.24512,85.40222,5.608521,-68.52173,15.96667,4.083333,-0.008333334000000001,1
180864,-0.015625,0.8793945,0.01318359,1.159668,16.17432,17.94434,86.91284,5.289917,-67.79663,-39.09167,-36.89167,-31.09167,1
181124,0.1176758,1.128418,-0.07275391,10.86426,11.53564,7.629395,88.09937,4.290161,-66.01685,23.15,-0.47500000000000003,0.7583333,1
181344,-0.02197266,0.9296875,0.31738279999999996,-14.64844,-1.220703,16.05225,88.11035,0.7415771,-65.61035,15.475,2.291667,-0.9083334,1
181574,-0.06689453000000001,0.8286133,0.01220703,-8.544922,3.4790039999999998,-9.643555,84.14429,5.531616,-66.57715,15.325,-0.85,1.0,1
181874,-0.06640625,0.8896484,0.22509769999999998,12.39014,-15.07568,-17.33398,86.59973,6.795044,-68.29651,-38.40833,-38.20833,-30.30833,1
182174,-0.09570313,0.7949219,-0.08935547,-2.929688,18.12744,5.554199,85.58899,3.202515,-62.90222,17.60833,-1.641667,2.175,1
182474,-0.002441406,0.8466796999999999,0.3588867,-15.13672,-17.51709,11.53564,87.24792,1.642456,-64.2865,-42.33333,-35.08333,-31.65,1
182814,-0.02978516,0.7929687999999999,0.008789063,-4.089355,9.094238,-8.483887,84.19922,5.987549,-65.84106,16.43333,-1.541667,0.05833333,1
184104,-0.12451169999999999,0.9062500000000001,-0.06152344,-8.911133,-6.9580079999999995,13.91602,83.57849,3.724365,-66.74744,-39.68333,-36.6,-31.03333,1
184444,-0.18994139999999998,1.058105,0.2685547,-3.723145,6.164551,13.97705,85.77026,7.091675,-67.76367,14.075,2.15,0.6166667,1
184644,-0.001464844,0.8564453,-0.01171875,-1.89209,27.89307,12.81738,85.65491,3.010254,-63.52295,14.85833,-1.45,0.5833332999999999,1
184864,-0.14697269999999998,1.279297,-0.230957,1.8310549999999999,8.728026999999999,4.211426,86.9458,2.922363,-59.39758,17.91667,5.241667,0.1083333,1
185084,-0.12207029999999999,0.8359375,0.07324219,-6.347656,-10.31494,-23.37646,86.4679,3.290405,-58.38135,-36.45,-37.26667,-34.65833,1
185354,-0.16259769999999998,0.8417969,-0.1020508,8.117676,3.234863,12.93945,85.55054,4.356079,-59.51294,23.89167,-2.208333,1.041667,1
185554,-0.1098633,0.984375,0.2509766,8.239746,-15.99121,-23.55957,89.17053,6.503906,-61.67175,16.63333,2.116667,-0.5,1
185774,-0.07958984,0.8393554999999999,-0.06884766,-8.300781,9.338379,4.394531,86.15479,3.488159,-59.7876,-36.99166,-37.7,-33.675,1
186054,-0.026367190000000002,1.276367,0.04199219,1.8310549999999999,-9.277344,28.56445,87.45117,2.69165,-58.56262,16.81667,4.55,-1.758333,1
186294,-0.0390625,0.8774413999999999,0.125,-0.8544921999999999,6.408691,-31.67725,86.48438,1.246948,-58.48572,14.66667,0.4166667,-1.15,1
186504,-0.2280273,1.191406,-0.08203125,18.12744,5.737305,-6.652832,85.56152,4.954834,-58.42529,-36.64167,-37.93333,-33.75834,1
186794,-0.14697269999999998,0.8393554999999999,0.11621089999999999,-8.728026999999999,10.68115,34.66797,88.11584,6.432495,-61.06201,-37.36666,-38.31667,-31.95,1
187084,-0.03320313,0.8222655999999999,-0.12695309999999999,-5.126953,1.525879,-7.019043,86.16028,3.257446,-57.27173,21.08333,-2.766667,0.9166667,1
187324,0.04394531,1.188477,0.215332,-4.699707,0.9155272999999999,-15.50293,87.68738,-0.1538086,-55.3656,14.7,2.35,-0.08333334,1
187604,-0.08984375,0.7714844,-0.1030273,-2.990723,-1.159668,9.399414,85.83618,4.691162,-57.6123,-38.475,-37.84167,-33.15,1
187874,-0.1489258,0.9316405999999999,0.2421875,26.67236,-36.8042,-6.896973,87.03918,5.575562,-59.27124,21.43333,4.758333,1.016667,1
188124,-0.07910156,0.8276367,-0.04296875,-5.7983400000000005,27.83203,13.06152,87.72583,3.03772,-58.27698,-39.50834,-37.88334,-31.43333,1
188424,0.1181641,1.096191,0.19824219999999998,0.5493163999999999,6.103516,20.38574,88.47839,0.3186035,-55.21729,-41.125,-35.66667,-32.80833,1
188734,-0.008789063,0.8164062999999999,0.03808594,-7.141113,8.056641,-14.5874,84.83643000000001,4.921875,-55.65125,13.025,-1.775,0.8833333,1
188974,-0.1953125,1.277344,-0.06689453000000001,8.911133,-5.615234,-6.591797,86.15479,5.015259,-54.25049,19.25,6.375,3.133333,1
189194,-0.08496094,0.8198242,0.11865229999999999,-10.43701,10.43701,24.10889,88.01697,5.366821,-54.63501,-36.60833,-38.05,-32.48333,1
189424,0.04980469,0.8315429999999999,-0.06152344,-1.953125,-9.70459,-6.591797,86.50085,3.312378,-53.46497,21.075,-4.958333,0.6166667,1
189694,-0.3066406,1.17627,0.5019530999999999,-0.4882813,-3.234863,21.1792,87.52808,1.604004,-53.01453,19.66667,4.358333,-1.55,1
189914,-0.09375000000000001,0.8730469,0.1293945,0.3662109,-4.699707,-29.78516,86.2207,2.554321,-54.38782,13.18333,0.5333333,-0.9500000000000001,1
190134,0.04345703,1.248047,-0.1308594,13.00049,-8.911133,-12.08496,86.39648,4.493408,-55.42053,-36.325,-37.56667,-33.175,1
190374,0.04003906,1.04541,0.24560549999999998,-8.178711,13.06152,14.83154,88.28613,7.487183,-56.15662,13.625,0.8666667,-0.5666667,1
190614,-0.04785156,0.859375,-0.1645508,5.92041,-2.13623,-7.263184,86.1438,3.449707,-50.36133,-36.025,-36.525,-36.00834,1
190864,0.09375000000000001,1.133301,0.1791992,4.516602,-6.896973,20.87402,88.53882,0.5108642999999999,-50.90515,17.7,3.05,-0.8916666,1
191144,-0.0625,0.8662109,-0.06152344,-6.469727,17.33398,-11.23047,86.83594,4.257202,-47.10388,-34.01667,-36.76667,-38.76667,1
191434,0.24072269999999998,1.089355,0.49023439999999996,17.76123,-10.55908,-33.75244,88.86841,6.37207,-49.96033,20.21667,2.608333,-0.4333333,1
191744,-0.07275391,0.7817383,-0.08544922,-12.45117,24.41406,3.4790039999999998,86.52832,2.977295,-46.54907,-34.50834,-36.05833,-39.75,1
192044,0.168457,0.8969727,0.2919922,-9.70459,-18.67676,28.93066,88.68713,1.021729,-42.95105,17.45833,2.9333329999999997,0.35833329999999997,1
192354,0.024902340000000002,0.7563477,-0.01904297,-10.68115,-5.554199,-6.164551,86.98975,5.614014,-47.9718,-33.39167,-36.9,-39.75834,1
192654,0.04736328,1.04248,0.3129883,9.70459,-0.793457,-37.47559,88.36853,6.245728,-50.02625,-32.90833,-38.18333,-37.83333,1
192964,-0.1445313,0.8115234,-0.11279299999999999,-2.197266,26.48926,5.554199,87.41272,2.323608,-40.69336,16.75833,-1.916667,2.6,1
193204,-0.030273440000000002,1.283203,-0.128418,-5.92041,17.51709,12.146,89.32983,2.598267,-38.43018,16.58333,5.175,-1.191667,1
193424,-0.1035156,0.8149413999999999,0.1040039,-5.493164,4.272461,-26.67236,88.11584,2.460938,-34.34326,-29.71667,-35.31667,-45.19167,1
193654,-0.21337889999999998,0.8442383,-0.06445313,-0.793457,-0.06103516,4.577637,85.85815,4.553833,-33.349,20.725,-4.191667,2.241667,1
193924,0.3227539,1.108887,0.3769531,20.38574,-26.97754,-22.33887,89.37378,6.970825,-38.63892,17.95833,2.883333,-0.1916667,1
194134,-0.041015630000000004,0.8300780999999999,0.08007813,-9.460449,20.75195,22.76611,89.02771,5.564575,-38.97949,14.76667,-1.183333,-0.925,1
194364,-0.05712891,1.373535,-0.1230469,2.319336,12.93945,11.1084,89.52209,2.741089,-32.29431,-29.11667,-36.03333,-44.89167,1
194604,-0.18212889999999998,1.031738,0.12744139999999998,-1.525879,9.216309,-25.75684,88.91785,0.1043701,-30.65186,14.70833,1.316667,-1.141667,1
194844,-0.3149414,0.9150391,-0.09667969,13.30566,-3.78418,13.85498,86.97876,3.630981,-29.81689,-27.05,-35.41667,-46.675,1
195084,-0.18945309999999999,0.9174804999999999,0.2749023,0.9155272999999999,-4.638672,-12.02393,90.5658,6.410522,-31.20667,15.60833,2.95,-0.8583333999999999,1
195374,-0.03710938,0.8266602,-0.08056641,-5.249023,6.04248,4.333496,88.33557,2.252197,-27.3999,-26.55,-35.95833,-46.8,1
195684,-0.05029297,0.9995117,0.29443359999999996,-8.178711,13.3667,26.9165,89.87366,0.4229736,-24.65332,-26.79167,-35.39167,-47.3,1
195934,-0.1015625,0.8457030999999999,0.08740234,-6.469727,-12.02393,-25.6958,88.81348,2.801514,-24.04358,14.78333,0.03333333,-0.3333333,1
196184,-0.01367188,1.224121,-0.1713867,8.300781,-23.62061,-1.342773,89.04968,3.861694,-27.75696,-26.05833,-37.375,-44.5,1
196454,0.0078125,0.8769530999999999,0.046875,-9.643555,7.507324,19.16504,90.78003,4.312134,-31.8988,-27.88333,-37.55833,-43.05,1
196764,-0.01220703,0.9257812999999999,-0.11279299999999999,-8.117676,-0.9155272999999999,-8.666992,89.06067,2.537842,-30.3772,18.61667,-1.75,-0.48333329999999997,1
197014,-0.07275391,1.082031,0.18994139999999998,-9.58252,22.52197,5.187988,89.198,-1.268921,-26.32874,15.39167,2.108333,-1.566667,1
197314,-0.1376953,0.7392578,-0.1171875,1.098633,18.49365,9.338379,85.79224,3.636475,-19.0448,19.95,-2.358333,2.141667,1
197544,0.04003906,1.20459,0.3320313,36.86523,-28.13721,-18.9209,90.47241,4.372559,-19.51721,21.46667,2.875,0.9083334,1
197774,-0.060546880000000004,0.8837891,-0.02929688,-7.93457,18.31055,10.49805,90.1593,2.362061,-20.31921,-23.01667,-36.6,-45.78333,1
198004,0.0,1.115723,-0.1196289,-1.220703,14.22119,2.563477,89.81873,2.493896,-18.78662,18.75,3.025,0.2666667,1
198254,-0.044921880000000004,1.099609,0.23730469999999998,-11.2915,10.13184,4.699707,89.00574,-0.6262207,-17.74292,16.06667,2.4,-1.216667,1
198464,-0.0625,0.7714844,-0.06884766,-8.850098,20.08057,3.723145,86.06689,4.119873,-15.06226,-18.21667,-35.05,-48.75,1
198714,-0.2026367,1.215332,0.2324219,27.70996,-6.04248,-22.82715,89.70886,4.746094,-15.45227,21.44167,3.508333,0.2666667,1
198984,-0.09228516,0.859375,0.09277344,-7.629395,15.68604,23.62061,91.0437,5.07019,-14.79309,14.59167,-0.35000000000000003,-0.6333333,1
200184,-0.024902340000000002,1.018555,0.1606445,-1.525879,20.62988,18.85986,90.18677,5.059204,-16.10046,15.375,1.216667,-1.5,1
200414,0.05322266,0.9145508,-0.05224609,6.04248,8.850098,-6.408691,87.11609,1.757813,-9.84375,-15.1,-35.775,-48.3,1
200724,-0.2280273,1.177246,0.19433589999999998,-0.3662109,3.4790039999999998,-9.216309,88.10486,-0.45593259999999997,-5.894165,15.51667,2.116667,-0.3833333,1
201014,0.01757813,0.7529296999999999,-0.04980469,-0.3662109,5.371094,15.74707,85.75378,4.185791,-10.82153,-14.51667,-35.55833,-48.98333,1
201324,-0.2480469,1.225586,0.18212889999999998,8.178711,4.089355,-2.197266,90.19775,5.690918,-12.2168,14.83333,1.15,-0.1833333,1
201614,-0.011230470000000001,0.8876953,-0.06152344,-10.92529,6.652832,-5.7983400000000005,88.11584,1.5271000000000001,-7.805786,-13.90833,-36.85,-47.55,1
201924,-0.048828130000000004,1.104492,0.3125,-11.04736,6.347656,12.26807,88.98926,-1.367798,-5.059204,15.91667,2.158333,-0.8916666,1
202224,-0.05615234,0.8447266,-0.02783203,-6.713867,14.03809,-4.638672,86.01746,3.323364,-4.11438,-10.425,-36.05,-48.96667,1
202564,-0.08105469,0.9506836,0.34082029999999996,9.216309,13.67188,-14.95361,89.10461,5.026245,-4.394531,15.85,3.0,-0.40833329999999995,1
202794,-0.01855469,0.875,0.05615234,-3.4790039999999998,33.75244,21.11816,88.30261,2.224731,-1.560059,15.00833,-1.466667,-0.8416665999999999,1
202994,0.06982422,0.9702147999999999,-0.07470703000000001,7.69043,16.23535,-1.525879,87.24792,1.279907,2.993774,21.14167,-3.366667,-1.366667,1
203194,-0.01757813,0.9482421999999999,0.3115234,-12.3291,6.225586,14.28223,87.41821,-1.060181,7.185059,17.15,3.725,0.01666667,1
203414,-0.1132813,0.8520508,0.03466797,-5.310059,12.146,-12.75635,85.78674,2.850952,12.54089,-0.4,-35.54167,-48.79167,1
203654,-0.1308594,1.226563,-0.11865229999999999,7.202148,-17.33398,-2.929688,85.7428,2.856445,13.54065,-0.09166667,-36.51667,-47.6,1
203924,-0.04003906,0.8598633,0.10839839999999999,-4.272461,7.69043,19.04297,88.28064,4.086914,11.42029,-0.2083333,-37.325,-47.05833,1
204174,-0.08496094,0.9013671999999999,-0.05078125,-5.7983400000000005,7.446289,1.403809,86.41296,1.115112,16.10596,16.96667,-0.275,0.15,1
204414,0.03369141,1.202637,-0.07275391,-1.525879,-0.3662109,9.70459,86.7041,0.8129883,16.71021,15.88333,4.216667,0.49166669999999996,1
204624,-0.05957031,1.017578,0.21728519999999998,-5.187988,-3.4790039999999998,2.685547,86.5448,-1.378784,16.32568,16.20833,1.933333,-0.025,1
204844,-0.06591797,0.8417969,-0.05029297,3.051758,10.0708,-0.24414059999999999,85.63843,2.878418,17.22656,20.79167,-1.366667,1.516667,1
205124,-0.03808594,1.072754,0.24951169999999998,-0.3051758,-30.51758,-14.95361,90.30762,5.921631,13.11218,2.783333,-37.70833,-45.39167,1
205414,-0.008300781,0.8691405999999999,-0.015625,-10.00977,3.2958979999999998,22.2168,88.15979,3.076172,9.981079,15.06667,-1.608333,-1.408333,1
205664,0.04394531,1.227539,-0.0078125,5.92041,-7.324219,16.35742,88.35754,-0.2636719,11.98059,15.91667,5.375,-1.0,1
205934,-0.05615234,0.8554687999999999,0.05517578,-2.319336,6.774902,-22.46094,87.33032,1.658936,13.18909,1.183333,-36.63334,-47.96667,1
206214,-0.20556639999999998,1.063965,-0.09570313,17.39502,-2.563477,6.103516,87.28088,2.444458,14.6228,22.6,-0.5166666999999999,2.183333,1
206454,-0.07861328000000001,0.9418945,0.12744139999999998,-2.197266,-5.371094,17.08984,90.47791,4.976807,10.81604,1.166667,-38.13334,-46.275,1
206794,0.09619141,0.9477538999999999,-0.04980469,7.873535,1.586914,-1.464844,88.82446,1.856689,15.06775,22.13333,-4.191667,-0.5666667,1
207044,-0.04248047,1.072266,0.1845703,-5.126953,5.371094,-3.417969,88.23669,-1.032715,16.49597,0.9333332999999999,-37.54167,-46.89167,1
207274,-0.03662109,0.8730469,0.03173828,-10.68115,-1.7700200000000001,-12.63428,86.75903,2.889404,14.89746,14.0,0.03333333,-1.508333,1
207524,-0.09570313,1.223633,0.02294922,25.75684,-10.49805,-23.01025,86.43494,3.6804200000000002,14.49646,2.583333,-35.75834,-47.99166,1
207754,-0.08886719,0.9521484,0.1474609,-2.868652,3.356934,17.7002,88.05542,4.625244,12.74414,15.05833,0.9416667,-0.675,1
208034,-0.06591797,0.8784179999999999,-0.06787109,-4.394531,8.239746,3.845215,86.36902,1.213989,15.98511,17.14167,-1.291667,1.75,1
208274,0.02685547,0.8730469,0.3071289,-6.469727,-2.868652,26.30615,87.50061,-0.9448242,18.8855,0.675,-35.2,-46.175,1
208530,-0.03564453,0.8437500000000001,0.01318359,-11.04736,-1.708984,-3.234863,85.92957,2.938843,17.55615,1.666667,-33.05,-46.83333,1
208824,-0.08496094,1.3354489999999999,-0.1054688,4.577637,-23.31543,-6.530762,87.60498,3.169556,14.29871,14.66667,4.85,2.2,1
209064,0.06787109,0.8896484,0.04931641,-13.61084,15.38086,19.34814,89.98901,3.707886,11.89819,-1.291667,-32.00834,-43.98333,1
209314,0.02441406,0.9033203,-0.0625,-4.455566,1.89209,-9.338379,88.4729,1.582031,14.76563,20.45,-4.9,0.35000000000000003,1
209564,0.03710938,0.9599609,0.1948242,-9.70459,-5.7983400000000005,-6.347656,88.27515,-1.318359,15.47424,-2.416667,-31.6,-44.875,1
209824,-0.04833984,0.8730469,0.05371094,-2.929688,13.85498,-11.84082,86.8634,1.911621,15.77087,13.9,-1.35,-0.225,1
210074,-0.05029297,1.265137,-0.01611328,16.90674,-18.49365,-17.21191,88.25317,2.741089,17.14966,1.325,-31.94167,-42.8,1
210384,0.02685547,0.8999022999999999,0.002441406,-13.18359,33.93555,20.32471,89.59351,3.103638,18.20435,14.08333,-1.8666669999999999,-2.225,1
210684,-0.01806641,1.3979489999999999,-0.15136719999999998,-3.662109,-5.371094,12.87842,88.73657,0.9393311,19.95667,2.45,-32.79167,-42.1,1
210994,-0.08447266,0.8295897999999999,0.06445313,-0.4882813,10.43701,-13.85498,86.55579,2.460938,18.89648,14.225,-0.3833333,0.125,1
211364,-0.06298828000000001,1.006348,0.2832031,5.004883,-14.28223,-29.41895,90.5603,5.158081,16.77063,9.666667,-33.29167,-41.925,1
211624,0.04443359,0.8310546999999999,0.04296875,-13.85498,20.50781,15.86914,88.97278,3.251953,16.52344,14.45,-2.658333,-0.6416666999999999,1
211874,-0.1674805,1.499512,-0.01171875,-17.45605,-4.211426,21.78955,87.76428,1.950073,21.50574,10.64167,-34.36666,-45.73333,1
212104,-0.046875,0.9179687999999999,0.25,-12.20703,11.84082,-11.71875,83.97949,0.34606929999999997,18.46802,14.18333,2.475,0.5833332999999999,1
212354,-0.1103516,0.8305663999999999,0.03857422,5.126953,-0.42724609999999996,-10.37598,83.17749,4.372559,20.462040000000002,14.75833,-2.85,3.916667,1
212564,-0.09765625,0.9853516,0.3266602,19.28711,-17.76123,-18.79883,87.995,6.333618,17.90771,12.01667,-36.05,-46.925,1
212814,-0.01611328,0.8886719,0.07861328000000001,-5.310059,-0.06103516,16.60156,87.7478,4.015503,16.3916,14.8,-0.975,-0.8333332999999999,1
213084,0.04003906,0.8833008,-0.09130859,6.347656,8.544922,-5.859375,86.56677,2.675171,17.81433,21.875,-5.35,0.008333334000000001,1
213294,-0.1542969,1.115723,0.22070309999999999,-2.13623,-3.173828,-7.324219,87.43469,-0.6427001999999999,19.38538,7.508333,-39.25,-46.65833,1
213554,-0.1191406,0.8261719,0.04638672,-8.056641,-13.24463,-20.87402,87.05566,3.773804,15.5896,14.61667,-0.5583332999999999,-1.508333,1
213814,-0.2197266,1.275879,0.15087889999999998,21.85059,-24.6582,-23.4375,87.56104,3.971558,13.46375,14.73333,3.65,-0.08333334,1
214114,-0.030273440000000002,0.9765625,-0.01416016,-2.563477,18.18848,18.43262,88.69812,4.207764,12.0575,14.29167,-2.575,-0.8166667,1
214394,-0.04052734,1.402832,-0.05517578,-1.6479489999999999,7.141113,10.86426,89.41223,1.318359,14.99634,6.091667,-41.525,-46.21667,1
214664,-0.14257809999999999,1.012695,0.121582,-0.24414059999999999,3.234863,-14.46533,88.76404,-1.142578,15.75989,16.28333,0.9416667,-1.066667,1
214954,-0.13916019999999998,0.8300780999999999,-0.08496094,-2.441406,3.78418,14.64844,85.07263,3.120117,15.90271,23.94167,-2.491667,0.7916667,1
215214,-0.08007813,1.064941,0.1923828,-1.464844,1.037598,2.13623,88.98926,6.097412,14.07898,9.0,-39.75,-46.68333,1
215524,0.011230470000000001,0.8823242,-0.15039059999999999,6.774902,-0.42724609999999996,-7.446289,87.12708,2.06543,14.72168,6.866667,-40.85833,-46.85833,1
216734,-0.06494141,0.8745117,-0.109375,-5.859375,0.6103516,-4.699707,86.79749,1.790771,12.71667,5.783333,-39.99166,-48.09167,1
216974,-0.08984375,1.322266,-0.12207029999999999,8.666992,-9.521484,27.22168,87.58301,0.7086182,12.854,15.95,5.508333,-1.141667,1
217214,-0.06933594,0.8237304999999999,0.08105469,-11.1084,8.178711,-22.46094,85.54504,1.686401,15.08972,7.225,-38.13334,-49.11666,1
217474,-0.24853519999999998,0.9082030999999999,-0.07226563,9.094238,1.89209,8.850098,84.11133,2.93335,17.03979,23.64167,-0.8833333,1.716667,1
217684,-0.1152344,0.9414062999999999,0.2993164,16.54053,-13.97705,-25.20752,88.03894,5.701904,13.63953,17.31667,2.45,0.125,1
217904,0.07763672,0.8374022999999999,0.09228516,-6.286621,11.77979,20.69092,87.5885,3.158569,12.65076,14.375,-1.316667,-0.525,1
218184,-0.07275391,1.310059,-0.140625,1.342773,4.02832,11.04736,87.56653,1.351318,16.41907,15.45,4.766667,-1.05,1
218394,-0.09179688,0.9892578,0.1875,-4.882813,3.601074,-9.82666,86.79199,-0.6811522999999999,16.19385,15.125,1.383333,-0.31666669999999997,1
218604,-0.06396484,0.8725586,0.002441406,-6.225586,-1.159668,-10.86426,85.55603,3.416748,15.86426,14.55833,-0.9666665999999999,0.9916666999999999,1
218834,-0.21777339999999998,1.044922,0.2275391,23.74268,-45.77637,-16.05225,87.95105,4.317627,11.12366,7.166667,-39.39167,-48.14167,1
219094,0.07373047,0.8720703,0.08056641,-6.164551,12.02393,20.75195,88.396,3.988037,9.261475,15.96667,-0.8,-1.216667,1
219344,-0.060546880000000004,1.2573239999999999,-0.2880859,1.342773,6.347656,13.48877,87.65991,1.6479489999999999,14.27124,6.341667,-40.20833,-47.6,1
219644,-0.09423828000000001,0.9252929999999999,0.11474609999999999,4.516602,-7.507324,-25.20752,86.77551,0.4833984,15.5072,14.94167,0.7333333,-1.575,1
219954,-0.2280273,1.087891,-0.04443359,15.25879,-8.605957,2.01416,84.96277,2.719116,14.11743,7.016667,-38.09167,-49.125,1
220254,0.1098633,0.8691405999999999,0.18164059999999999,-6.713867,31.37207,31.67725,86.97876,5.39978,11.47522,14.95833,-0.24166669999999998,-0.40833329999999995,1
220554,0.08203125,1.008301,-0.0546875,17.57813,-7.385254,-1.8310549999999999,86.55029,2.076416,17.79785,8.225,-38.89167,-46.93333,1
220894,-0.1464844,0.9160155999999999,0.14306639999999998,-0.7324219,0.06103516,-28.19824,86.68762,-0.3405762,16.94092,14.575,1.166667,0.40833329999999995,1
221144,-0.2729492,0.8925780999999999,-0.03857422,11.71875,0.8544921999999999,13.3667,85.67139,3.010254,16.01807,7.908333,-37.95,-47.65833,1
221374,0.1196289,0.9584961,0.3359375,9.82666,-7.202148,-38.08594,89.49463,5.718384,13.84277,15.55,2.283333,-0.24166669999999998,1
221624,-0.05419922,0.8310546999999999,-0.07275391,-8.178711,-3.90625,1.159668,87.66541,2.416992,14.31519,6.625,-38.81667,-46.76667,1
221854,-0.07324219,1.395996,-0.030273440000000002,-7.019043,-2.075195,19.16504,88.62122,2.015991,13.89771,16.475,5.733333,-1.283333,1
222134,-0.08398438,0.9746094,0.1733398,-4.02832,-2.380371,-13.42773,87.46216,-0.5053711,14.11194,15.425,1.725,-0.7583333,1
222354,-0.08398438,0.8779296999999999,0.09277344,-8.911133,-16.8457,-14.64844,85.84167,3.554077,10.1239,15.375,-1.4,-1.516667,1
222594,-0.30224609999999996,1.269043,0.07470703000000001,18.06641,-2.807617,-31.61621,85.77576,4.416504,10.05798,6.925,-36.13334,-48.25834,1
222854,-0.105957,0.8945312999999999,0.03662109,-6.896973,23.80371,21.1792,86.75354,3.306885,15.83679,8.166667,-36.65833,-46.45,1
223114,0.05566406,0.9399413999999999,-0.06298828000000001,5.859375,-6.530762,-3.2958979999999998,86.37451,2.537842,16.43555,24.575,0.2083333,-0.8583333999999999,1
223364,0.05566406,0.9379883,0.20996089999999998,-3.601074,-7.93457,-15.01465,86.43494,-0.802002,13.255,5.783333,-36.06667,-46.95833,1
223664,-0.08398438,0.8217772999999999,-0.09765625,12.02393,18.37158,14.70947,83.75427,3.911133,13.48572,9.516666,-33.89167,-46.90833,1
223924,-0.06640625,1.088867,0.3930664,34.66797,-38.08594,-21.05713,87.51709,5.103149,10.39856,20.875,3.483333,0.09166667,1
224174,-0.05908203,0.8500977,-0.05371094,-2.258301,24.04785,16.23535,87.43469,2.25769,11.74988,8.933333,-33.8,-45.78333,1
224484,-0.09130859,1.02002,0.171875,6.530762,0.8544921999999999,16.60156,88.59924,-0.44494629999999996,12.43103,18.39167,3.633333,-1.941667,1
224784,-0.06396484,0.8647461,-0.004394531,-0.3662109,-1.8310549999999999,-15.07568,86.17676,3.136597,11.88171,10.6,-30.93333,-46.31667,1
225124,-0.26269529999999996,1.027832,0.2436523,17.8833,-8.300781,-24.35303,88.89587,5.762329,11.37085,17.59167,3.225,-0.9500000000000001,1
225384,-0.01953125,0.8896484,-0.01269531,-12.3291,10.55908,12.51221,86.73157,2.735596,12.81555,10.866670000000001,-28.86667,-47.525,1
225604,-0.1025391,1.361816,-0.09912109000000001,-1.220703,2.075195,11.04736,87.28638,1.73584,14.08997,17.38333,4.65,-1.225,1
225854,-0.1333008,0.8911133,0.11425779999999999,-0.5493163999999999,0.6103516,-19.65332,85.8197,2.120361,13.24402,9.391666,-28.48333,-48.68333,1
226084,-0.09765625,0.8320312999999999,-0.06396484,7.8125,6.225586,9.338379,83.79822,4.141846,12.51892,21.66667,-2.958333,0.5666667,1
226374,-0.09375000000000001,1.086914,0.3320313,29.47998,-33.87451,-22.76611,86.24268000000001,5.493164,9.503174,19.98333,3.633333,-0.04166667,1
226574,-0.0703125,0.8354492,0.12060549999999999,-3.662109,2.441406,23.31543,87.00623,5.344849,7.805786,15.225,-0.7416667,0.2583333,1
226794,0.004394531,1.203125,-0.2885742,4.943848,13.91602,11.84082,88.24219,2.400513,11.01929,3.075,-34.66667,-50.125,1
227034,-0.16699219999999998,1.171387,0.2275391,-13.73291,-14.95361,-0.06103516,87.75879,-0.5218505999999999,9.744873,15.39167,2.0,-1.025,1
227274,0.06738281,0.8276367,-0.02001953,-8.789063,9.216309,6.896973,84.19922,4.317627,3.334351,0.4333333,-34.55,-50.575,1
227534,-0.1362305,1.401367,-0.02929688,19.104,-0.06103516,-18.12744,84.83643000000001,3.762817,4.751587,15.24167,5.15,0.775,1
227804,-0.04736328,0.8999022999999999,0.002929688,3.2958979999999998,25.81787,17.15088,86.93481,3.933105,6.135864,3.275,-36.55833,-47.49166,1
228104,-0.09619141,1.446289,-0.048828130000000004,-6.530762,9.58252,16.72363,86.84692,2.25769,12.28821,14.10833,5.016667,-0.5166666999999999,1
228404,-0.08398438,0.9521484,0.10839839999999999,9.460449,-8.972168,-17.15088,86.89087,1.593018,12.60681,5.675,-35.80833,-47.94167,1
228704,-0.1020508,0.9975586,-0.048828130000000004,2.746582,-21.91162,-0.9765625,83.02917,3.186035,10.62927,22.81667,2.133333,3.783333,1
229024,-0.11621089999999999,0.8701171999999999,0.15039059999999999,0.3051758,14.83154,19.16504,86.68213,5.657959,7.767334,16.31667,-0.35000000000000003,0.9,1
229314,-0.02197266,0.8525391,-0.1357422,-2.197266,24.53613,3.051758,86.77551,3.015747,11.60156,19.81667,-1.433333,0.65,1
229604,-0.06201172,1.042969,0.1196289,5.065918,5.371094,-23.86475,88.0719,-1.010742,16.64978,4.583333,-36.25,-47.48333,1
229844,-0.06494141,0.8574219,-0.009277344,-10.43701,13.00049,-6.530762,86.23169,2.861938,17.06177,14.71667,-1.383333,0.5333333,1
230084,-0.03466797,1.048828,0.3222656,10.80322,-17.39502,-25.08545,88.29163,5.08667,15.8313,6.791667,-34.75834,-46.28333,1
230324,-0.04248047,0.8583984,0.1044922,-10.55908,5.859375,13.18359,87.24792,4.136353,16.10046,15.475,-0.7666666999999999,-0.5,1
230584,0.01464844,0.9194336,-0.06591797,-5.493164,2.563477,-5.310059,85.05615,2.6477049999999998,15.04578,18.975,-1.316667,0.425,1
230804,-0.12744139999999998,1.276367,0.09570313,5.432129,-3.051758,19.89746,86.34705,0.7745361,17.86377,18.30833,4.383333,-1.4583329999999999,1
231024,-0.041015630000000004,0.8779296999999999,0.07617188,-9.399414,2.13623,-19.22607,84.49585,2.675171,17.78687,9.15,-32.35,-48.41667,1
231264,-0.3295898,0.9868163999999999,-0.1445313,14.5874,-1.708984,10.19287,83.14453,3.323364,20.73669,24.60833,-0.35833329999999997,1.816667,1
231514,0.04833984,0.8701171999999999,0.1831055,-5.7983400000000005,25.02441,30.82275,86.7865,6.097412,17.38037,14.7,1.225,0.03333333,1
231824,0.06347656,0.9697266,-0.05859375,7.69043,11.23047,1.342773,85.96802,2.438965,25.84534,9.416667,-35.10833,-46.88334,1
233094,-0.06835938,0.8637695,-0.1015625,-4.211426,7.93457,-4.211426,85.66589,2.114868,31.64063,19.50833,-1.658333,0.025,1
233324,0.04199219,1.047363,0.3701172,-5.859375,-1.098633,22.33887,86.45142,-1.109619,33.53027,14.35833,-40.75834,-40.3,1
233634,0.0234375,0.871582,0.09423828000000001,-4.333496,-4.272461,-26.61133,86.02295,1.889648,34.11255,13.93333,-0.2583333,-0.6916667,1
233864,0.01806641,1.38916,-0.08642578000000001,-1.8310549999999999,-21.42334,-10.55908,84.68262,3.592529,32.45911,20.24167,-36.425,-41.43333,1
234174,0.0390625,0.9716796999999999,0.11669919999999999,-0.1831055,9.338379,13.5498,84.21021,3.515625,36.27686,15.30833,-0.08333334,0.01666667,1
234474,-0.0234375,1.032715,-0.11621089999999999,6.9580079999999995,0.9765625,-3.051758,85.14404,2.801514,38.974,24.13333,2.116667,1.733333,1
234784,0.07470703000000001,0.9165038999999999,0.14257809999999999,-2.990723,1.220703,-35.40039,85.31982,0.2636719,37.15576,14.9,1.6,-0.9083334,1
235014,-0.022460940000000002,0.8583984,0.020996090000000002,-1.8310549999999999,-4.211426,-11.2915,83.20496,4.438477,36.52954,15.06667,-2.208333,0.2333333,1
235244,-0.05859375,1.108887,0.4013672,13.12256,-17.57813,-30.70068,85.61096,5.575562,33.25562,20.825,-36.45833,-41.80833,1
235474,-0.1074219,0.8759766,0.1054688,-6.835938,21.66748,20.01953,84.75403,4.998779,33.06885,14.70833,-1.041667,-0.2916667,1
235724,-0.0390625,1.333984,-0.2075195,-0.3051758,9.70459,7.080078,86.6217,3.301392,36.58997,19.76667,-39.09167,-39.65833,1
235954,-0.1044922,0.9760742,0.1254883,-0.12207029999999999,-4.333496,-33.3252,86.7041,0.7305908,37.19971,14.36667,0.75,-1.633333,1
236234,-0.09375000000000001,0.8632812999999999,0.002929688,-10.55908,-9.033203,-6.591797,84.26514,4.196777,36.00769,14.525,-0.975,0.35000000000000003,1
236454,-0.005371094000000001,1.296387,-0.2353516,9.399414,-5.249023,-4.455566,84.88586,2.642212,35.12878,16.925,7.25,2.858333,1
236664,-0.08203125,0.8491211,0.06689453000000001,-9.277344,32.71484,19.59229,86.2262,3.6859129999999998,34.60144,19.39167,-38.79167,-40.04167,1
236904,0.05761719,0.8930663999999999,-0.12744139999999998,13.12256,26.00098,-1.464844,85.53406,3.191528,39.59473,23.875,-0.5166666999999999,-0.7666666999999999,1
237154,-0.1279297,0.9423828,0.159668,-1.89209,-6.04248,-30.82275,86.13281,-0.2197266,40.65491,14.325,1.3,-0.75,1
237464,-0.300293,0.9482421999999999,-0.09472656,16.47949,-11.65771,15.38086,84.06738,2.631226,37.95227,19.1,-38.70833,-39.775,1
237764,0.21337889999999998,0.9101562999999999,0.2109375,-5.981445,28.07617,24.84131,86.78101,4.372559,35.17273,19.90833,-38.75834,-38.51667,1
238024,-0.06933594,0.8076171999999999,-0.11083979999999999,-3.723145,19.89746,-0.42724609999999996,86.03394,0.8129883,43.56628,17.73333,-2.0,1.591667,1
238274,0.1635742,0.980957,0.2763672,-16.41846,3.051758,17.39502,88.02795,-1.7028809999999999,44.80225,18.65833,-42.25834,-34.13334,1
238584,0.08056641,0.7700195,-0.05957031,0.06103516,5.859375,0.6713867,85.70435,2.944336,44.681400000000004,18.08333,-2.308333,1.291667,1
238884,0.07617188,0.9956054999999999,0.3681641,5.554199,-4.333496,-34.11865,88.25317,5.163574,39.34753,22.25,-37.28333,-36.95,1
239224,-0.03466797,0.8417969,-0.1289063,-10.00977,23.98682,4.516602,86.47339,2.06543,44.95056,16.51667,-1.783333,1.175,1
239474,0.11669919999999999,0.8945312999999999,0.3320313,-13.91602,5.004883,18.24951,87.35779,-1.3623049999999999,47.68066,19.55833,-41.03333,-34.41667,1
239704,-0.07177734,0.7993163999999999,0.09570313,-11.1084,-15.68604,-26.00098,86.09985,2.202759,46.92261,12.28333,-0.325,-0.2333333,1
239954,-0.03222656,1.361328,0.0009765625,4.699707,1.586914,-22.15576,85.45166,2.823486,44.04419,20.38333,-37.225,-38.05,1
240184,0.03759766,0.9399413999999999,0.1796875,-4.089355,18.37158,25.45166,87.08862,5.103149,43.84644,15.15,0.675,-0.9,1
240474,-0.05078125,0.8203125,-0.12255859999999999,-5.859375,14.64844,-0.6103516,85.74829,1.774292,50.48218,16.9,-1.55,2.016667,1
240684,-0.01416016,1.399414,0.03076172,-2.746582,5.187988,17.76123,87.65442,1.483154,51.78406,15.25833,5.116667,-1.775,1
240894,-0.05078125,0.8564453,0.07373047,-8.850098,-20.01953,-25.14648,86.15479,2.307129,49.92188,14.38333,-38.26667,-33.20833,1
241134,-0.3154297,1.071289,-0.1679688,4.577637,-17.7002,4.211426,83.86963,2.6202389999999998,48.10364,22.95833,2.6,1.2,1
241374,0.05810547,0.8002929999999999,0.1699219,-4.02832,15.74707,27.89307,85.72632,4.680176,46.25793,17.26667,-36.66667,-31.44167,1
241634,-0.00390625,0.8549804999999999,-0.15625,15.74707,-3.90625,-7.446289,85.83069,2.433472,49.422,21.06667,-5.783333,0.40833329999999995,1
241904,-0.159668,1.096191,0.19384769999999998,-1.708984,7.69043,-17.57813,87.29187,-1.477661,50.02625,17.825,-39.43333,-28.14167,1
242194,-0.2973633,0.8393554999999999,-0.08447266,5.310059,-0.8544921999999999,17.15088,84.11682,2.48291,47.85645,23.64167,-2.941667,2.308333,1
242504,0.03125,0.9267578,0.1733398,-10.00977,-0.6713867,19.65332,87.88513,6.108398,44.63745,23.54167,-35.85833,-30.18333,1
242814,0.09521484000000001,1.090332,-0.05859375,7.873535,14.4043,8.117676,87.97302,2.785034,48.91113,22.4,0.525,0.31666669999999997,1
243124,-0.03173828,0.9736328,0.1113281,-0.1831055,0.8544921999999999,-24.71924,87.91809,-0.4833984,48.97705,13.95833,0.7166667,-0.85,1
243454,-0.3603516,1.126953,-0.1308594,14.70947,-33.02002,-4.455566,86.19324,1.829224,50.23499,22.15,3.033333,1.758333,1
243684,-0.43505859999999996,1.087402,0.2314453,6.774902,-3.2958979999999998,-30.57861,89.44519,7.179565,47.52686,14.26667,2.35,-1.325,1
243874,-0.1015625,0.8793945,-0.06738281,1.342773,27.22168,14.16016,88.04443,3.817749,49.82849,14.54167,-2.516667,0.3416667,1
244084,-0.005859375,1.210938,-0.206543,0.12207029999999999,-6.591797,20.20264,89.79126,2.9827879999999998,51.47644,18.13333,6.841667,0.5750000000000001,1
244304,-0.07177734,0.8857421999999999,0.1040039,-0.3662109,-8.117676,-26.00098,88.41248,0.7196045,49.47693,21.51667,-37.775,-29.71667,1
244534,-0.1025391,0.7509766,-0.05615234,-4.272461,3.173828,14.22119,85.61646,2.526855,48.47168,21.225,-2.266667,2.216667,1
244784,-0.005859375,1.22168,0.3603516,28.62549,-20.99609,-31.18896,89.30237,3.977051,45.54382,19.275,2.666667,-1.316667,1
245004,-0.07519531,0.8837891,-0.09716797,-1.464844,14.83154,9.277344,88.20374,2.416992,48.22449,23.98333,-36.99166,-28.69167,1
245244,0.009765625,1.42041,-0.1342773,-2.380371,-1.342773,13.5498,89.79126,1.686401,49.11438,16.09167,4.925,-0.55,1
245534,-0.09814453000000001,0.8320312999999999,0.08349609,-12.51221,-1.89209,-21.78955,88.35754,1.213989,49.01001,24.63333,-36.84167,-29.81667,1
245804,-0.03662109,1.458984,-0.02734375,4.821777,1.159668,-18.73779,88.34656,3.004761,48.79028,26.16667,-35.975,-29.35,1
246094,0.07666016,0.8676758,0.1577148,-2.197266,16.78467,19.34814,88.81897,5.52063,48.5321,14.68333,-0.8416665999999999,1.091667,1
246344,0.10058589999999999,1.09082,-0.04296875,-0.42724609999999996,6.225586,11.47461,89.67041,3.2958979999999998,51.77856,26.16667,-36.13334,-28.26667,1
246614,-0.1464844,0.9711913999999999,0.09472656,0.3051758,-13.06152,-15.44189,88.80798,-0.005493164,51.99829,14.41667,1.208333,-0.7083332999999999,1
246944,-0.2041016,0.9794921999999999,-0.1328125,10.19287,-23.4375,9.277344,87.50061,2.202759,47.01599,23.00833,-35.675,-32.79167,1
247224,0.07519531,0.8515625,0.152832,-9.033203,22.33887,25.87891,88.53882,4.108887,44.82971,22.65833,-34.88334,-32.425,1
247524,-0.04394531,0.8359375,-0.1381836,7.446289,14.89258,-7.385254,87.00073,1.7303469999999999,49.92188,18.2,-1.658333,-0.775,1
247814,-0.04736328,0.9545897999999999,0.11474609999999999,5.065918,-12.45117,-31.37207,87.87964,0.005493164,52.72888,22.125,-38.125,-26.75833,1
248044,-0.06103516,0.8217772999999999,-0.00390625,-13.24463,7.8125,-0.6713867,85.39673,3.779297,51.39404,18.73333,-3.908333,2.858333,1
248324,-0.11083979999999999,1.33252,0.09423828000000001,16.35742,-14.09912,-31.61621,87.02271,3.603516,47.9718,15.84167,4.033333,-0.925,1
249504,-0.2983398,1.396484,0.1762695,20.69092,4.02832,-28.9917,87.2644,3.630981,45.26917,17.59167,3.541667,-0.48333329999999997,1
249724,-0.08496094,0.8120117,0.13134769999999998,-0.8544921999999999,29.47998,21.24023,87.24792,5.009766,45.42847,15.45,-0.6666667,-0.008333334000000001,1
249944,0.02294922,1.155762,-0.07714844,3.417969,9.338379,15.19775,88.03345,2.532349,49.13635,28.63333,-41.30833,-26.89167,1
250194,-0.078125,1.169434,0.190918,-6.164551,7.019043,-4.516602,88.61572,-1.318359,50.75134,15.825,1.566667,0.125,1
250434,-0.041015630000000004,0.7929687999999999,0.02294922,-12.45117,-4.943848,-13.73291,87.5885,3.092651,48.62,12.91667,-0.7166667,-2.616667,1
250644,-0.1103516,1.217773,0.3149414,24.90234,-4.150391,-25.14648,88.90137,4.795532,48.62,31.28333,-38.54167,-28.74167,1
250884,0.0004882813,0.8388671999999999,0.09423828000000001,-2.624512,33.63037,25.63477,88.10486,4.608765,49.97681,14.44167,-1.483333,-0.1833333,1
251174,0.0,1.291504,-0.1577148,-5.310059,11.23047,4.455566,89.85168,2.9882809999999997,54.70093,29.50833,-42.025,-24.70833,1
251444,-0.0004882813,0.828125,0.04541016,-11.23047,-28.68652,-26.7334,89.56604,3.7683109999999997,50.33936,29.46667,-39.675,-29.35833,1
251734,-0.27001949999999997,0.9243163999999999,-0.08300781,-1.586914,8.666992,16.54053,86.51184,3.872681,49.54285,23.15,-2.583333,0.6416666999999999,1
251984,0.05517578,0.9521484,0.1923828,-10.31494,10.31494,23.74268,88.46191,6.102905,46.40625,28.35,-38.98333,-32.16667,1
252264,0.1538086,1.07959,-0.05859375,9.70459,1.586914,6.225586,89.42322,2.548828,51.54236,26.64167,-41.75834,-28.86667,1
252564,-0.01025391,0.9433594,0.2685547,-8.178711,2.075195,45.47119,89.72534,-1.170044,53.1958,17.61667,1.241667,0.875,1
252854,-0.1401367,1.161621,-0.109375,4.333496,-27.40479,0.7324219,88.32458,1.549072,48.99353,24.08333,-41.325,-31.1,1
253104,-0.3452148,1.304688,0.12451169999999999,17.7002,-12.69531,-12.75635,91.04919,5.93811,46.90613,15.00833,1.45,-1.641667,1
253354,-0.08837891,0.8833008,-0.04345703,-6.774902,34.30176,11.47461,89.13208,2.15332,51.27319,14.225,-2.183333,-0.6083333,1
253574,-0.08496094,1.070801,0.15917969999999998,14.70947,17.02881,21.24023,89.46716,1.488647,57.11792,23.75833,-42.61666,-25.01667,1
253804,-0.09619141,0.9887695,0.10839839999999999,-0.9155272999999999,-9.94873,-27.771,89.70337,0.24719239999999998,57.09045,13.35,0.8666667,-1.891667,1
254054,-0.14257809999999999,1.1479489999999999,-0.1279297,7.141113,-25.08545,9.216309,87.47314,2.6477049999999998,51.86096,24.20833,-40.28333,-29.73333,1
254294,-0.1606445,0.9541016,0.1762695,-5.065918,-12.3291,-8.666992,89.76379,6.745605,49.85046,14.45833,2.6,0.0,1
254574,-0.05078125,0.9311522999999999,-0.05566406,-3.234863,8.972168,12.87842,88.70361,3.328857,53.00903,13.23333,-2.141667,-0.075,1
254784,0.01269531,1.111816,-0.07958984,10.62012,15.38086,0.42724609999999996,90.01099,3.103638,55.40405,19.19167,0.9583332999999999,0.525,1
254994,-0.1308594,0.8676758,0.07080078000000001,-2.075195,-1.037598,-25.75684,89.68689,0.9063721,57.43103,24.775,-42.05,-25.225,1
255244,-0.02783203,0.8164062999999999,-0.09814453000000001,-11.35254,11.23047,0.8544921999999999,87.03369,4.064941,56.41479,18.94167,-1.3,0.2583333,1
255484,-0.1884766,0.9755859,0.2763672,1.464844,-0.5493163999999999,-28.93066,89.42871,6.729126,51.7511,14.24167,2.691667,-1.575,1
255794,0.01757813,0.8041992,-0.1630859,4.577637,0.793457,0.0,88.48938,2.389526,55.57983,25.30833,-42.70833,-25.375,1
256094,0.07421875,1.200684,0.22851559999999999,-4.150391,5.67627,1.281738,89.93958,-1.126099,55.94788,22.95833,-44.73333,-24.75,1
256364,-0.03466797,0.7812500000000001,0.03076172,-14.83154,-12.69531,-10.37598,88.75854,2.653198,54.01428,13.25833,-1.35,-1.541667,1
256614,-0.1796875,0.965332,0.23291019999999998,6.591797,-32.71484,-14.22119,89.00574,3.131104,51.405030000000004,25.675,-41.60833,-28.05,1
