Timestamp,AccX,AccY,AccZ,GyroX,GyroY,GyroZ,AngX,AngY,AngZ,MagX,MagY,MagZ,Tag
0,-0.02294922,1.026367,-0.01464844,1.159668,-1.708984,1.586914,91.48315,1.878662,89.50012,59.26667,-87.96667,71.75833,1
439,-0.02978516,1.011719,-0.03613281,-0.4882813,4.02832,1.342773,91.6095,1.411743,89.73633,17.775,-0.425,0.15,1
629,-0.02978516,1.011719,-0.03613281,-0.4882813,4.02832,1.342773,91.6095,1.411743,89.73633,17.45833,-0.45,0.3833333,1
839,-0.030273440000000002,1.03418,-0.0078125,2.563477,-2.685547,-0.1831055,91.34583,1.5325929999999999,89.39575,17.425,-0.3416667,0.05833333,1
1049,-0.03808594,1.001465,-0.01611328,0.793457,1.403809,1.89209,91.33484,1.4556879999999999,89.34082,59.04167,-88.25,71.98333,1
1349,-0.03955078,1.012695,-0.01660156,0.0,-0.24414059999999999,2.563477,91.17004,0.9283446999999999,89.56604,17.33333,-0.2666667,0.15,1
1649,-0.0234375,1.012695,-0.01806641,0.3051758,-1.098633,-0.24414059999999999,91.42273,0.8239746,89.47815,58.63334,-88.26667,72.34167,1
1959,0.001953125,1.015137,-0.02832031,0.0,-0.06103516,1.89209,91.1261,0.5657959,89.24194,17.2,-0.3333333,-0.1833333,1
2259,-0.001953125,1.021973,-0.026367190000000002,1.464844,0.793457,1.953125,91.15906,0.2252197,89.52759,58.14167,-88.78333,72.24167,1
2559,0.01367188,1.039551,-0.01953125,0.12207029999999999,0.793457,0.4882813,91.0437,-0.09887695,89.39026,17.45833,-0.675,0.1416667,1
2869,-0.006347656,1.030762,-0.01611328,-2.075195,0.9765625,2.868652,90.97229,-0.39550779999999996,89.58801,17.275,-0.30000000000000004,-0.2,1
3119,-0.01220703,1.012207,-0.011230470000000001,-0.6103516,-1.098633,0.6713867,90.29663,-0.7305908,89.15955,17.425,-0.1833333,-0.3333333,1
3369,0.02929688,1.031738,-0.006347656,0.4882813,-2.929688,1.586914,89.8407,-1.2854,88.80249,57.15,-89.925,71.05833,1
3669,0.05126953,1.021484,-0.011230470000000001,0.0,-2.624512,2.990723,89.85168,-1.6479489999999999,88.32458,17.50833,-0.15833329999999998,-0.1,1
3929,0.044921880000000004,1.02002,-0.01171875,-0.3051758,1.708984,0.42724609999999996,89.85718,-1.708374,88.37402,17.45,-0.09166667,-0.025,1
4199,0.03515625,1.013672,-0.006835938000000001,0.42724609999999996,-0.3662109,-0.793457,89.86267,-1.774292,88.59375,17.34167,0.0,0.1,1
4539,0.030273440000000002,1.013672,0.0,-0.4882813,2.502441,-0.06103516,89.91211,-1.7028809999999999,89.08813,17.4,-0.025,0.008333334000000001,1
4849,0.03417969,1.016602,-0.008789063,0.3662109,-1.037598,0.12207029999999999,90.01648,-1.779785,89.07715,17.34167,-0.09166667,0.0,1
5049,0.03808594,1.016602,-0.0078125,-1.037598,-0.12207029999999999,-0.3051758,89.95605,-1.7303469999999999,88.92334,17.425,-0.1166667,-0.2,1
5269,0.02587891,1.019531,-0.01220703,-1.7700200000000001,-2.380371,0.4882813,89.72534,-1.697388,88.90137,17.28333,0.075,-0.2166667,1
5479,0.03173828,1.021484,-0.006835938000000001,1.342773,-1.953125,4.211426,89.56055,-2.098389,88.36304,17.55833,0.05,0.4166667,1
5689,0.05126953,1.011719,0.008300781,-1.89209,2.380371,1.281738,89.74182,-2.653198,87.85217,56.40833,-90.525,70.24167,1
5929,0.017089840000000002,1.037598,0.01367188,-0.9765625,0.6103516,-0.793457,88.93982,-2.70813,88.8739,17.06667,0.5,0.1,1
6179,0.044921880000000004,1.063477,-0.02294922,1.403809,6.713867,2.685547,89.2804,-3.35083,89.48364,17.48333,0.30000000000000004,-0.35833329999999997,1
6489,0.09179688,1.013672,0.02832031,-1.525879,2.380371,1.953125,88.87939,-3.7683109999999997,89.87915,54.76667,-91.43333,70.59167,1
6800,0.07275391,1.012207,0.03076172,0.1831055,-0.8544921999999999,0.12207029999999999,88.56628,-3.955078,90.1593,54.625,-91.61667,70.35833,1
7059,0.07226563,1.011719,0.03271484,0.0,0.06103516,0.3051758,88.61023,-3.955078,90.22522,17.325,0.4583333,0.0,1
7309,0.05029297,1.010254,0.02685547,-1.281738,-0.06103516,-0.9765625,88.69812,-3.795776,90.21973,54.69167,-91.625,70.325,1
7609,0.06152344,1.015625,0.03466797,0.24414059999999999,-0.1831055,-0.12207029999999999,88.61023,-3.554077,89.93958,17.36667,0.6000000000000001,-0.025,1
7909,0.05712891,1.015625,0.03320313,-0.4882813,0.06103516,-0.3662109,88.64319,-3.47168,89.87915,55.16667,-91.51667,69.93333,1
8209,0.05566406,1.015625,0.03808594,-0.9155272999999999,-1.098633,-0.3051758,88.40149,-3.378296,89.68689,55.06667,-91.53333,69.525,1
8489,0.06835938,1.007324,0.04638672,-0.4882813,0.3662109,0.0,88.34106,-3.328857,89.60449,17.30833,0.8666667,-0.1916667,1
9729,0.05810547,1.007813,0.06298828000000001,-0.1831055,0.5493163999999999,0.24414059999999999,88.4729,-3.499146,89.4342,55.1,-91.86667,68.93333,1
10019,0.05175781,1.011719,0.052734380000000004,0.3051758,0.12207029999999999,0.1831055,88.68713,-3.482666,89.36279,17.3,0.9166667,0.15,1
10389,0.0625,1.015137,0.046875,1.098633,-0.793457,-0.3051758,89.08264,-3.55957,89.31885,55.16667,-91.79166,69.05,1
10619,0.06396484,1.015137,0.04638672,0.24414059999999999,-0.1831055,-0.12207029999999999,89.26392,-3.55957,89.29688,17.33333,0.7416667,0.075,1
10899,0.06494141,1.01709,0.04736328,0.1831055,0.0,0.12207029999999999,89.37927,-3.587036,89.26392,17.33333,0.75,-0.025,1
11109,0.05957031,1.016602,0.04443359,-0.4882813,0.1831055,0.0,89.39026,-3.587036,89.29688,17.3,0.8166667,-0.05833333,1
11319,0.06542969,1.02002,0.03564453,0.9155272999999999,0.1831055,-0.12207029999999999,89.51111,-3.548584,89.28589,55.26667,-91.725,69.16666,1
11559,0.05810547,1.003418,0.06445313,-1.281738,1.159668,0.0,89.26392,-3.592529,89.599,17.20833,1.041667,0.225,1
11809,0.07519531,1.035645,0.01025391,2.075195,0.6103516,0.793457,89.99451,-3.66394,89.71436,55.08333,-91.65833,69.68333,1
12070,0.07177734,1.005859,0.07958984,0.3662109,0.0,-0.1831055,89.80774,-3.619995,89.74182,17.3,0.8333332999999999,0.5333333,1
12329,0.07763672,1.015625,0.04199219,1.708984,1.464844,-1.464844,90.21973,-3.548584,89.90662,17.53333,0.1166667,-0.075,1
12539,0.07763672,1.015625,0.04199219,1.708984,1.464844,-1.464844,90.21973,-3.548584,89.90662,16.825,0.5166666999999999,-0.09166667,1
12759,0.06494141,1.018555,0.00390625,0.6103516,-1.403809,0.4882813,90.54382,-3.598022,90.08789,17.30833,0.31666669999999997,-0.48333329999999997,1
13029,0.06640625,1.005859,0.044921880000000004,1.586914,-1.953125,0.0,90.12634,-3.779297,89.93408,54.825,-91.70834,70.26667,1
13299,0.07666016,1.027832,0.02929688,-3.967285,1.159668,1.098633,89.8407,-3.78479,89.78027,17.21667,0.9666665999999999,-0.2833333,1
13549,0.06689453000000001,1.019531,0.03662109,-1.342773,0.8544921999999999,0.4882813,89.42871,-4.031982,89.48364,54.775,-91.98333,69.26667,1
13849,0.06445313,1.016602,0.04296875,-1.098633,0.5493163999999999,-0.6103516,89.32434,-3.817749,89.36279,54.975,-91.95,69.00833,1
14129,0.06542969,1.014648,0.05029297,0.0,-0.12207029999999999,-0.42724609999999996,89.28589,-3.707886,89.40125,17.35833,0.925,0.1083333,1
14369,0.06738281,1.012207,0.06005859,0.0,-0.06103516,-0.3051758,89.34082,-3.625488,89.4397,17.275,0.9,-0.075,1
14709,0.06884766,1.012695,0.05859375,0.0,-0.06103516,0.0,89.29688,-3.630981,89.42871,17.30833,0.975,0.06666667,1
14919,0.06396484,1.015625,0.05419922,0.1831055,-0.6103516,0.0,89.37927,-3.647461,89.42322,17.24167,1.058333,0.2083333,1
15129,0.07226563,1.022461,0.04248047,0.9765625,1.89209,-0.24414059999999999,89.64294,-3.521118,89.25842,17.35,0.7666666999999999,-0.25,1
15339,0.060546880000000004,1.013672,0.05957031,-0.9155272999999999,-1.8310549999999999,0.0,89.50562,-3.510132,89.45068,17.29167,1.033333,-0.15,1
15559,0.06396484,1.01709,0.06494141,-1.159668,-0.6103516,0.0,89.20349,-3.598022,89.44519,55.00834,-92.05,68.46667,1
15789,0.06542969,1.015137,0.06689453000000001,-1.098633,1.098633,0.9765625,89.00024,-3.636475,89.37378,17.45,1.016667,-0.24166669999999998,1
16059,0.07568359,1.015137,0.07177734,-1.220703,-0.9155272999999999,-0.12207029999999999,88.67615,-3.779297,89.41772,17.25833,1.233333,0.0,1
16349,0.05419922,1.012695,0.07373047,-0.793457,0.1831055,-0.12207029999999999,88.6322,-3.872681,89.5166,17.25833,1.416667,-0.125,1
16569,0.1035156,1.022461,0.07080078000000001,1.220703,-1.037598,-0.3662109,88.73108,-3.790283,89.28589,55.03333,-92.31667,67.86667,1
16879,0.07910156,1.016113,0.07226563,0.06103516,-3.112793,-0.12207029999999999,89.09912,-4.064941,89.2804,17.25,1.1,-0.1166667,1
17179,0.0546875,1.003906,0.08007813,0.6103516,0.5493163999999999,-1.037598,89.14856,-3.757324,89.18701,55.075,-92.24167,67.75,1
17479,0.06201172,1.013184,0.07324219,0.9155272999999999,1.037598,0.3051758,89.47815,-3.543091,88.92334,17.23333,1.2,0.04166667,1
17779,0.06445313,1.014648,0.06591797,0.793457,1.525879,0.1831055,89.69238,-3.570557,89.12659,55.25,-91.98333,68.275,1
18079,0.06103516,1.009277,0.06689453000000001,-1.220703,-0.06103516,0.0,89.6759,-3.565063,89.45618,55.14167,-92.0,68.375,1
18369,0.06103516,1.012207,0.07226563,-0.1831055,-1.342773,-0.06103516,89.54407,-3.548584,89.198,55.21667,-92.14167,68.3,1
18669,0.06103516,1.007813,0.07568359,0.24414059999999999,-0.793457,0.1831055,89.52759,-3.532104,88.97278,55.25,-92.13333,68.075,1
19009,0.06542969,1.015137,0.06201172,-0.42724609999999996,-0.42724609999999996,0.42724609999999996,89.70337,-3.674927,88.81897,17.225,1.25,-0.05833333,1
19239,0.06640625,1.013672,0.07373047,0.3662109,-0.5493163999999999,-0.1831055,89.66492,-3.696899,88.67065,17.26667,1.075,-0.05,1
19459,0.06542969,1.012207,0.07519531,-0.7324219,0.8544921999999999,-0.12207029999999999,89.63745,-3.696899,88.65967,17.24167,1.25,-0.008333334000000001,1
19669,0.05371094,1.012207,0.06787109,1.220703,1.7700200000000001,0.1831055,89.71985,-3.587036,89.00574,55.275,-92.04166,68.15,1
19909,0.05908203,1.010742,0.06689453000000001,0.3051758,0.793457,0.1831055,89.89563,-3.570557,89.13208,17.325,1.091667,0.05833333,1
20189,0.05859375,1.010254,0.0703125,0.4882813,1.586914,0.3051758,90.0,-3.603516,89.2804,17.30833,1.125,0.1666667,1
20399,0.06347656,1.013184,0.06396484,0.9155272999999999,1.159668,0.8544921999999999,90.27466,-3.773804,89.58252,17.31667,0.9583332999999999,0.05,1
20679,0.07275391,1.008301,0.06005859,-0.793457,0.3051758,0.0,90.34058,-3.911133,89.84619,54.85,-92.04166,69.11667,1
20979,0.06933594,1.012207,0.06396484,0.0,0.1831055,-0.06103516,90.29114,-3.900146,89.82422,17.29167,1.016667,0.03333333,1
21219,0.07080078000000001,1.015137,0.05712891,0.06103516,0.0,-0.12207029999999999,90.34058,-3.861694,89.74731,17.25833,1.0,-0.075,1
21499,0.07128906,1.014648,0.06201172,-1.586914,-0.12207029999999999,-0.12207029999999999,90.17578,-3.757324,89.60449,54.975,-91.975,68.84167,1
21769,0.06835938,1.008789,0.06884766,-0.9155272999999999,-1.037598,-0.1831055,89.97253,-3.696899,89.35181,17.3,1.175,-0.1333333,1
22009,0.07861328000000001,1.008301,0.07373047,0.7324219,1.403809,-0.6103516,89.80225,-3.587036,89.24194,55.20833,-92.01667,68.25833,1
22309,0.07080078000000001,1.016602,0.06835938,0.06103516,-0.7324219,-0.3662109,89.83521,-3.477173,89.07715,55.29167,-91.98333,68.21667,1
22589,0.05566406,1.010742,0.06933594,-0.4882813,-1.403809,-0.4882813,89.78027,-3.4552,89.13208,17.35833,1.183333,-0.4,1
22839,0.05371094,1.005371,0.07275391,-2.441406,-0.12207029999999999,-4.272461,89.31885,-2.872925,89.40125,17.2,1.675,-0.1083333,1
23129,-0.01367188,1.015625,0.06152344,5.004883,-2.380371,-0.6103516,89.99451,-2.263184,89.59351,17.25833,1.241667,0.55,1
23479,0.02392578,1.00293,0.04785156,4.02832,-4.089355,-1.159668,91.19751,-2.730103,89.20898,17.69167,0.8583333999999999,0.2916667,1
23679,0.07226563,1.012695,0.03564453,-0.5493163999999999,6.286621,1.220703,91.19751,-2.8125,89.07166,17.25833,0.9333332999999999,-0.31666669999999997,1
23899,0.06298828000000001,1.008789,0.05029297,2.197266,-5.981445,0.8544921999999999,91.22498,-3.323364,89.18152,55.44167,-91.59167,69.4,1
24139,0.06103516,1.007324,0.048828130000000004,-0.6103516,9.399414,1.037598,91.10413,-3.614502,89.86267,17.28333,0.65,-0.04166667,1
24419,0.05126953,1.008789,0.048828130000000004,-1.159668,-2.258301,-0.1831055,90.86243,-3.817749,90.73608,17.275,0.9583332999999999,-0.1333333,1
24619,0.05371094,1.018555,0.04589844,0.8544921999999999,-0.06103516,-0.6103516,90.7196,-3.78479,90.47241,54.65,-91.88333,69.83334,1
24869,0.06152344,1.013184,0.04638672,-0.06103516,-0.12207029999999999,-0.3051758,90.8075,-3.652954,90.41199,17.28333,0.7666666999999999,-0.01666667,1
26099,0.048828130000000004,1.009277,0.06201172,-1.6479489999999999,-0.793457,-0.24414059999999999,89.98352,-3.251953,89.71436,17.28333,1.1,0.008333334000000001,1
26309,0.05224609,1.011719,0.05859375,1.037598,-0.12207029999999999,-0.06103516,90.01099,-3.175049,89.50012,17.3,1.0,0.2583333,1
26529,0.06396484,1.013184,0.06005859,-0.8544921999999999,-0.793457,-0.793457,90.14282,-3.186035,89.3573,55.58333,-91.68333,68.91666,1
26799,0.04980469,1.014648,0.05810547,-0.3662109,-1.403809,-0.9155272999999999,90.04944,-3.114624,89.26392,17.31667,0.9833333999999999,-0.125,1
27039,0.05419922,1.015137,0.06201172,-0.7324219,0.3051758,-0.06103516,89.75281,-2.9608149999999998,89.17603,55.65833,-91.69167,68.44167,1
27349,0.05957031,1.01709,0.06005859,0.0,0.12207029999999999,0.1831055,89.82422,-3.010254,89.18701,17.28333,1.083333,-0.05833333,1
27649,0.052734380000000004,1.015137,0.06542969,-0.12207029999999999,0.1831055,0.0,89.76379,-2.966309,89.12659,55.825,-91.70834,68.475,1
27949,0.052734380000000004,1.015137,0.06542969,-0.3662109,-1.037598,0.12207029999999999,89.7583,-2.999268,89.12109,55.85833,-91.70834,68.21667,1
28229,0.05078125,1.01123,0.06689453000000001,0.3051758,-0.793457,-0.12207029999999999,89.76379,-3.02124,88.97827,17.30833,1.116667,0.05833333,1
28469,0.04931641,1.013184,0.06396484,0.24414059999999999,0.12207029999999999,0.12207029999999999,89.85168,-3.03772,88.93982,17.33333,1.016667,0.0,1
28809,0.05517578,1.013184,0.06640625,0.12207029999999999,0.3051758,0.3051758,89.86816,-3.158569,89.10461,17.40833,1.066667,0.15,1
29019,0.056640630000000004,1.013672,0.05908203,0.12207029999999999,0.7324219,0.1831055,89.95056,-3.22998,89.14856,17.26667,1.058333,0.09166667,1
29229,0.06201172,1.012207,0.0625,0.6713867,0.8544921999999999,0.06103516,90.02197,-3.279419,89.25842,17.30833,0.9833333999999999,0.06666667,1
29439,0.05371094,1.009766,0.06542969,0.42724609999999996,0.06103516,0.0,90.0824,-3.306885,89.40674,17.375,0.9666665999999999,0.1666667,1
29649,0.06152344,1.016602,0.05566406,0.3662109,0.06103516,0.0,90.24719,-3.306885,89.4397,55.35,-91.81667,68.90833,1
29899,0.05712891,1.01416,0.05908203,0.1831055,0.5493163999999999,0.24414059999999999,90.25818,-3.328857,89.54956,17.35,0.9666665999999999,0.025,1
30149,0.06640625,1.015625,0.05712891,0.8544921999999999,0.06103516,0.42724609999999996,90.36255,-3.383789,89.69238,17.18333,0.9666665999999999,0.025,1
30449,0.05175781,1.012695,0.05371094,0.3662109,0.06103516,0.24414059999999999,90.39551,-3.433228,89.76929,17.19167,0.9083334,0.06666667,1
30670,0.05810547,1.012695,0.05224609,-0.06103516,0.06103516,-0.06103516,90.4834,-3.444214,89.78027,55.24166,-91.71667,69.11667,1
30979,0.06835938,1.016113,0.05175781,0.1831055,-0.793457,-0.12207029999999999,90.46692,-3.477173,89.86816,17.41667,0.8916666,0.025,1
31269,0.07958984,1.013184,0.04785156,-0.12207029999999999,-2.563477,0.793457,90.51636,-3.543091,89.33533,55.14167,-91.75,69.28333,1
31579,0.06542969,1.017578,0.03564453,-0.4882813,-1.159668,1.525879,90.4834,-3.872681,89.71985,17.375,0.8333332999999999,-0.025,1
31869,0.05566406,1.009766,0.05419922,-0.12207029999999999,2.075195,1.525879,90.3186,-4.158325,89.7583,54.63334,-92.225,69.20834,1
32189,0.06103516,1.005859,0.052734380000000004,-0.793457,1.8310549999999999,0.9765625,90.27466,-4.21875,89.60999,17.16667,1.016667,-0.01666667,1
32519,0.08154297,1.009277,0.05712891,1.342773,-2.075195,0.6103516,90.33508,-4.795532,89.44519,17.19167,0.9166667,0.05833333,1
32789,0.1020508,1.025391,0.04443359,-0.5493163999999999,-3.723145,-1.464844,90.34607,-4.801025,89.54407,17.375,0.7083332999999999,-0.2583333,1
33159,0.07714844,1.009277,0.0625,-0.3051758,0.793457,0.12207029999999999,89.87915,-4.707642,89.50012,54.21667,-92.5,68.73333,1
33429,0.09130859,1.009766,0.0625,-1.159668,2.502441,-0.9155272999999999,89.71436,-4.586792,89.57703,17.15,1.225,0.0,1
33669,0.06738281,1.012207,0.06542969,0.3662109,-0.793457,-0.1831055,89.71985,-4.460449,89.80225,17.39167,1.033333,0.01666667,1
33889,0.07714844,1.009277,0.06298828000000001,-0.6713867,0.793457,-0.7324219,89.72534,-4.383545,89.69238,54.46667,-92.425,68.725,1
34129,0.06982422,1.013672,0.06201172,-0.4882813,0.06103516,-0.12207029999999999,89.71985,-4.279175,89.6814,17.31667,1.058333,-0.05833333,1
34379,0.07568359,1.010254,0.06933594,0.0,-0.1831055,0.06103516,89.60449,-4.32312,89.52759,17.225,1.25,-0.008333334000000001,1
34679,0.07128906,1.015625,0.06201172,0.0,-0.7324219,-0.12207029999999999,89.65942,-4.290161,89.39575,17.25,1.125,-0.008333334000000001,1
34899,0.07666016,1.01123,0.06445313,0.3051758,-0.3662109,-0.06103516,89.69788,-4.32312,89.42322,54.60833,-92.3,68.475,1
35209,0.07519531,1.010742,0.06201172,1.281738,-0.9155272999999999,0.0,89.98901,-4.306641,89.45068,17.325,0.9333332999999999,0.125,1
35499,0.07177734,1.013184,0.06152344,0.12207029999999999,0.3662109,0.24414059999999999,90.13733,-4.372559,89.58252,54.50834,-92.25833,68.85,1
35809,0.08154297,1.014648,0.06201172,0.5493163999999999,0.3662109,-0.12207029999999999,90.19226,-4.389038,89.63196,17.3,0.9500000000000001,0.03333333,1
36109,0.08007813,1.009277,0.05761719,0.0,0.0,0.06103516,90.23071,-4.400024,89.63745,54.45833,-92.275,68.83334,1
36409,0.07861328000000001,1.013672,0.05761719,0.0,0.1831055,-0.24414059999999999,90.22522,-4.449463,89.62097,54.36666,-92.30833,68.95834,1
36679,0.07519531,1.01416,0.05322266,-0.3051758,1.89209,0.06103516,90.19775,-4.394531,89.79675,17.28333,0.9583332999999999,-0.04166667,1
36929,0.07861328000000001,1.012695,0.06298828000000001,0.24414059999999999,0.12207029999999999,0.3051758,90.09888,-4.411011,89.69788,17.28333,0.9583332999999999,0.01666667,1
37239,0.07958984,1.01416,0.06103516,-0.12207029999999999,-1.525879,-0.06103516,90.04395,-4.411011,89.62646,17.29167,1.058333,-0.025,1
37539,0.08105469,1.007324,0.06835938,-0.793457,-0.6713867,0.3662109,89.86267,-4.400024,89.50012,17.24167,1.166667,-0.05833333,1
37889,0.078125,1.010254,0.06738281,-0.12207029999999999,-0.6103516,-0.06103516,89.78577,-4.378052,89.4342,17.26667,1.075,-0.008333334000000001,1
38119,0.07910156,1.013672,0.06640625,0.1831055,0.6103516,0.0,89.77478,-4.345093,89.42871,54.65833,-92.34167,68.58334,1
38359,0.07714844,1.01416,0.06445313,-0.3051758,-0.42724609999999996,-0.12207029999999999,89.79126,-4.345093,89.46167,17.25833,1.2,0.0,1
38599,0.07617188,1.009277,0.06591797,0.0,-0.42724609999999996,0.0,89.80225,-4.345093,89.44519,54.60833,-92.45,68.325,1
38839,0.07714844,1.012207,0.06689453000000001,0.5493163999999999,0.0,0.0,89.84619,-4.345093,89.4397,17.3,1.125,0.03333333,1
39109,0.078125,1.015137,0.06591797,0.12207029999999999,-0.06103516,0.0,89.88464,-4.345093,89.44519,17.26667,1.133333,0.0,1
39340,0.08056641,1.012207,0.06787109,0.24414059999999999,0.12207029999999999,-0.12207029999999999,89.92859,-4.312134,89.39026,54.60833,-92.43333,68.49167,1
39619,0.07470703000000001,1.013672,0.06396484,0.4882813,0.3662109,0.12207029999999999,89.95056,-4.290161,89.39026,54.66667,-92.375,68.54166,1
39909,0.07226563,1.01416,0.06396484,-0.06103516,0.06103516,0.0,89.97803,-4.295654,89.39575,17.275,1.141667,0.0,1
40149,0.07275391,1.01123,0.06884766,0.0,-0.12207029999999999,-0.06103516,89.97803,-4.262695,89.37927,17.29167,1.116667,0.03333333,1
40429,0.07470703000000001,1.012695,0.06445313,0.4882813,0.24414059999999999,0.0,90.07141,-4.262695,89.37927,54.79167,-92.4,68.575,1
40719,0.07958984,1.015625,0.05517578,0.6103516,0.4882813,-0.8544921999999999,90.20874,-4.191284,89.39026,17.31667,1.016667,0.1,1
40969,0.07470703000000001,1.013672,0.05517578,1.037598,0.12207029999999999,0.0,90.46143000000001,-4.213257,89.61548,17.275,0.9583332999999999,0.06666667,1
41249,0.07714844,1.013672,0.05029297,0.5493163999999999,0.9155272999999999,0.1831055,90.68115,-4.268188,89.76379,17.275,0.8,0.1083333,1
41589,0.06933594,1.006836,0.05712891,0.793457,0.5493163999999999,-0.6103516,90.71411,-4.0979,89.86816,17.31667,0.7833333,0.008333334000000001,1
41859,0.078125,1.01709,0.044921880000000004,0.1831055,0.7324219,0.1831055,90.76355,-4.136353,89.95056,17.325,0.8166667,0.025,1
43179,0.06738281,1.016602,0.04150391,0.42724609999999996,0.1831055,0.0,90.52185,-4.191284,90.04944,17.39167,0.8166667,0.04166667,1
43509,0.06689453000000001,1.015137,0.05029297,2.441406,1.89209,0.6713867,90.75256,-4.235229,90.17029,17.28333,0.6333333,0.2,1
43749,0.06933594,1.02002,0.02929688,2.197266,3.234863,-1.464844,91.19751,-3.9935300000000002,90.52734,17.2,0.5416667,0.03333333,1
44029,0.06835938,1.013672,0.030273440000000002,1.89209,2.197266,0.12207029999999999,91.37878,-3.823242,90.90637,17.35,0.47500000000000003,0.3333333,1
44229,0.08300781,1.021484,0.022460940000000002,0.3051758,3.4790039999999998,-0.42724609999999996,91.7688,-3.894653,91.27991,54.5,-91.3,71.40833,1
44479,0.06396484,1.020508,0.01757813,0.24414059999999999,1.281738,-0.3662109,91.74683,-3.7683109999999997,91.75781,17.34167,0.3333333,-0.008333334000000001,1
44749,0.05957031,1.016602,0.01953125,-2.13623,-1.7700200000000001,-0.3051758,91.56555,-3.7133789999999998,91.86218,17.325,0.4166667,-0.2333333,1
44969,0.05126953,1.008301,0.028808590000000002,-0.793457,-2.624512,0.0,91.15356,-3.669434,91.48865,17.26667,0.525,-0.09166667,1
45179,0.06689453000000001,1.018066,0.02587891,0.9765625,-2.563477,-0.42724609999999996,91.17554,-3.652954,90.74158,17.18333,0.47500000000000003,0.1333333,1
45449,0.05615234,1.015625,0.015136720000000001,0.24414059999999999,0.24414059999999999,-0.7324219,91.25793,-3.587036,90.76904,17.36667,0.35000000000000003,0.04166667,1
45669,0.05419922,1.015625,0.02392578,0.1831055,-1.098633,-1.220703,91.30188,-3.22998,90.47791,17.30833,0.31666669999999997,-0.08333334,1
45969,0.06152344,1.011719,0.005859375,0.8544921999999999,-2.197266,0.12207029999999999,91.26892,-3.120117,90.02747,55.45,-91.14167,70.725,1
46279,0.08544922,1.035156,-0.009765625,1.6479489999999999,-2.624512,3.90625,91.49963,-3.515625,88.7915,55.3,-91.15833,70.35833,1
46539,0.06982422,1.016602,0.02197266,-2.13623,-4.943848,0.9155272999999999,91.43372,-3.916626,88.48938,17.45,-0.05833333,-0.1916667,1
46789,0.08447266,1.023926,0.005371094000000001,-1.220703,0.0,-0.6713867,90.99426,-3.88916,88.31909,55.34167,-91.50833,69.84167,1
47099,0.07128906,1.020996,0.02978516,0.12207029999999999,-1.037598,-0.3662109,90.53833,-3.718872,88.23669,17.3,0.3833333,-0.15,1
47399,0.07128906,1.014648,0.02734375,-0.06103516,-0.3051758,-0.24414059999999999,90.37354,-3.702393,88.12134,17.40833,0.45,-0.09166667,1
47749,0.07421875,1.018555,0.024902340000000002,0.7324219,-0.6103516,0.0,90.35156,-3.702393,88.00598,17.3,0.4666667,0.17500000000000002,1
47969,0.07128906,1.018555,0.017089840000000002,0.793457,1.6479489999999999,-0.06103516,90.43945,-3.669434,88.02246,17.35,0.45,0.06666667,1
48159,0.06640625,1.010254,0.02929688,0.06103516,0.1831055,0.0,90.42847,-3.658447,88.08289,17.33333,0.4583333,-0.01666667,1
48369,0.05566406,1.010254,0.026367190000000002,-1.525879,1.8310549999999999,-0.42724609999999996,90.30762,-3.614502,88.4729,17.30833,0.65,-0.2083333,1
48579,0.04931641,1.005859,0.0234375,-1.525879,4.577637,-2.807617,90.06042,-3.35083,90.45593,55.21667,-91.26667,70.175,1
48819,0.04833984,1.020996,0.03759766,-0.6713867,-0.5493163999999999,-1.586914,89.87915,-3.098145,91.02173,17.23333,0.6833332999999999,-0.125,1
49079,0.03515625,1.01416,0.03857422,-1.098633,2.502441,0.1831055,89.74182,-3.03772,91.19751,17.25833,0.7083332999999999,-0.008333334000000001,1
49289,0.05322266,1.009766,0.04443359,0.0,0.5493163999999999,0.5493163999999999,89.67041,-2.9882809999999997,91.01624,17.275,0.725,0.025,1
49599,0.05224609,1.007813,0.04589844,0.5493163999999999,-0.8544921999999999,-0.793457,89.81323,-2.894897,90.8844,55.50834,-91.225,70.23333,1
49899,0.048828130000000004,1.014648,0.03369141,-0.42724609999999996,-0.06103516,0.5493163999999999,89.89014,-2.774048,90.79651,17.26667,0.7000000000000001,-0.01666667,1
50209,0.04785156,1.015137,0.03662109,0.06103516,0.3051758,0.7324219,89.96704,-2.894897,90.73608,55.46667,-91.26667,70.28333,1
50509,0.060546880000000004,1.013184,0.030273440000000002,-1.220703,-0.12207029999999999,1.6479489999999999,90.0824,-3.284912,90.73608,55.11666,-91.475,70.40833,1
50779,0.07666016,1.015137,0.03955078,-1.220703,-2.380371,2.13623,89.93408,-3.812256,90.37903,17.30833,0.7583333,-0.06666667,1
51029,0.08789063,1.027344,0.04931641,0.6103516,1.7700200000000001,-0.06103516,89.8407,-4.383545,90.58777,17.31667,0.4583333,0.2166667,1
51329,0.09521484000000001,1.02832,0.07128906,0.9155272999999999,2.01416,-3.417969,90.18127,-3.565063,89.98901,17.74167,0.30000000000000004,0.2333333,1
51639,0.052734380000000004,1.021973,0.01269531,3.601074,1.6479489999999999,-4.699707,91.29639,-2.197266,90.54382,17.275,-0.31666669999999997,0.8166667,1
51939,0.03417969,1.033691,-0.04052734,2.563477,-4.516602,-1.708984,92.4884,-1.09314,89.79126,17.11667,-0.05,0.15,1
52309,0.09082031,1.036133,-0.04541016,-1.525879,-4.699707,7.93457,92.18628,-2.614746,89.12659,55.99166,-90.4,71.73333,1
52569,-0.002929688,1.019043,-0.01611328,7.446289,2.13623,13.48877,92.29065,-4.905396,89.24194,16.50833,0.4333333,0.1333333,1
52819,0.1040039,1.006836,-0.04443359,-0.9765625,-4.943848,0.12207029999999999,92.51587,-7.201538,90.1593,52.13334,-92.30833,72.45834,1
53059,0.11669919999999999,0.9682617,-0.026367190000000002,-8.178711,2.990723,-11.04736,90.84595,-6.04248,90.28564,17.13333,0.8333332999999999,-1.133333,1
53299,0.08837891,0.9941405999999999,0.06542969,-3.540039,4.455566,-15.93018,89.53308,-3.208008,90.43945,17.33333,1.158333,-0.5666667,1
53519,0.0390625,1.050293,0.005371094000000001,-3.723145,-8.666992,3.173828,88.96179,-1.609497,89.85718,16.90833,0.875,-0.525,1
53829,0.06640625,0.9902344,0.09228516,-3.601074,0.06103516,3.356934,87.55554,-2.554321,89.16504,55.86666,-91.78333,67.875,1
54139,0.05078125,1.006836,0.05566406,0.12207029999999999,0.9765625,0.6103516,87.2699,-2.6971439999999998,88.93982,17.23333,1.733333,-0.1,1
54429,0.03417969,1.039063,0.07666016,0.3051758,-0.6103516,1.159668,87.61047,-2.504883,88.25317,56.43333,-91.66666,67.14167,1
54739,0.06201172,1.014648,0.06494141,2.197266,-0.5493163999999999,2.502441,87.89063,-2.856445,88.11035,55.96667,-91.875,67.425,1
55009,0.08398438,1.010254,0.04248047,1.586914,-1.89209,2.075195,88.33008,-3.251953,87.8302,17.26667,1.416667,0.36666669999999996,1
55249,0.08056641,1.025879,0.04199219,2.380371,2.197266,3.234863,89.02222,-4.152832,88.81348,54.775,-92.26667,68.45,1
55559,0.08789063,1.007813,0.05126953,0.3662109,0.42724609999999996,0.3662109,89.58801,-4.866943,89.30786,17.28333,0.8416665999999999,0.06666667,1
55859,0.08935547,1.019531,0.04296875,0.0,0.3051758,0.0,89.79675,-4.987793,89.23096,17.31667,0.8333332999999999,0.025,1
56169,0.08691406,1.011719,0.04589844,-0.7324219,-1.220703,-1.403809,89.79126,-4.691162,89.11011,17.28333,0.8083332999999999,-0.025,1
56499,0.08691406,0.9990234,0.05566406,10.43701,-0.1831055,1.525879,90.50537,-4.614258,89.00574,16.625,-0.03333333,2.458333,1
56809,0.09667969,1.063477,-0.02392578,9.460449,-2.807617,1.098633,94.79004,-5.476685,87.76978,17.35,-2.25,-0.2333333,1
57049,0.10498049999999999,1.112305,0.011230470000000001,-17.76123,9.094238,-10.00977,93.11462,-4.185791,88.86292,54.95833,-91.075,71.74167,1
57289,0.04833984,1.029297,0.008789063,-30.70068,7.507324,-11.96289,88.11035,-1.477661,90.01648,17.09167,0.6666667,-4.425,1
57529,0.0,0.9892578,0.1201172,-35.21729,-7.019043,1.098633,81.5625,-0.33508299999999996,90.53284,16.61667,2.883333,-6.75,1
57739,0.15039059999999999,0.9692383,0.4960938,-77.39258,-7.69043,-1.464844,64.7699,-1.318359,89.00024,57.06667,-92.375,48.20833,1
57979,-0.009765625,0.8657227,0.7119141,-41.68701,-1.281738,-1.953125,54.73938,-1.109619,89.42322,12.08333,13.19167,-4.191667,1
58259,0.04980469,0.6738280999999999,0.7529296999999999,-4.638672,-1.89209,-1.098633,50.02625,-1.148071,88.46191,10.14167,10.81667,3.058333,1
58490,0.01953125,0.7431641,0.5288086,54.26025,20.56885,5.187988,58.45276,-0.39550779999999996,90.76355,13.9,7.35,8.525,1
58749,0.006347656,0.8730469,0.3422852,53.10059,1.8310549999999999,2.990723,74.60266,0.03845215,95.00977,56.85,-92.94167,58.725,1
60039,0.1875,1.038086,0.08691406,2.319336,32.34863,12.87842,90.17029,-7.294922,93.02124,16.3,1.216667,0.125,1
60279,0.15087889999999998,1.004395,0.030273440000000002,-8.178711,24.16992,-4.943848,88.09937,-8.734131,103.8538,47.08333,-94.325,71.36667,1
60589,0.09228516,1.019531,-0.01367188,12.20703,63.23242,-2.807617,86.75354,-6.789551,115.5103,19.58333,1.7083329999999999,3.741667,1
60880,0.01269531,1.000488,0.10888669999999999,2.075195,73.91357,-1.6479489999999999,89.04419,-6.652222,137.6587,34.09167,-92.13333,81.575,1
61189,-0.1518555,0.9541016,-0.04248047,-16.05225,24.29199,2.929688,85.04517,-4.504395,152.6166,16.50833,0.0,-1.133333,1
61489,-0.020996090000000002,1.064453,0.0,24.23096,-10.86426,16.72363,84.83643000000001,-7.223511,151.106,26.49167,-93.36667,79.98333,1
61799,0.13916019999999998,0.9365234,0.07568359,1.525879,24.59717,4.699707,89.28589,-8.475952,154.1107,16.15833,0.6916667,-1.225,1
62129,0.1289063,0.9335937999999999,-0.028808590000000002,15.86914,61.15723,-10.62012,87.23694,-7.476196,166.5912,18.9,-0.5833332999999999,4.375,1
62449,-0.001464844,1.013184,0.1557617,-5.981445,38.0249,-3.112793,89.22546,-7.756348,-178.6322,15.21667,0.5083333,-1.691667,1
62669,-0.07763672,0.875,0.03173828,-18.49365,0.12207029999999999,-4.821777,86.69312,-6.234741,-174.386,14.50833,-0.9416667,-1.975,1
62859,0.3833008,1.13623,0.09326172,2.319336,-18.55469,-0.9765625,84.71008,-6.37207,179.2419,22.85,0.925,4.766667,1
63069,-0.08642578000000001,1.146973,0.3515625,15.19775,-38.87939,-11.84082,89.41223,-6.113892,173.3643,16.03333,1.808333,-0.725,1
63279,0.16601559999999999,0.8496094,0.07177734,-12.87842,2.868652,2.319336,88.37402,-5.679932,170.0189,14.475,-0.04166667,-2.183333,1
63499,0.2260742,1.09082,-0.2119141,10.00977,8.483887,0.1831055,83.82568,-3.9990229999999998,175.8801,15.525,-93.38333,75.94167,1
63739,0.02197266,1.116211,0.2338867,5.554199,20.32471,4.516602,85.6604,-6.04248,179.5605,15.91667,2.883333,-0.275,1
63989,-0.01611328,0.8413086,0.004394531,-12.63428,-8.178711,-1.525879,84.95178,-5.377808,179.4836,13.63333,0.0,-3.166667,1
64199,0.1601563,1.510254,0.2504883,51.08643,-18.73779,-10.25391,84.16626,-5.267944,171.9086,19.21667,5.625,1.091667,1
64499,0.01953125,1.022461,0.1054688,-14.77051,-15.44189,-0.3051758,86.81396,-3.773804,169.0247,14.48333,1.216667,-1.766667,1
64719,-0.02832031,0.9370117,0.1132813,11.2915,40.52734,-2.990723,82.2876,-2.6971439999999998,173.2983,17.05,-95.125,76.85,1
64999,0.2524414,0.9414062999999999,0.4790039,-26.79443,32.53174,17.7002,83.19397,-5.009766,176.9183,18.9,2.666667,-1.541667,1
65229,-0.2319336,0.7978516,0.01171875,-17.63916,-5.004883,4.516602,80.54626,-3.724365,-178.9673,12.775,-95.46667,74.88333,1
65559,0.43457029999999996,1.262207,0.5336913999999999,17.45605,3.112793,-8.239746,84.74304,-4.921875,174.1827,20.44167,3.3,-1.35,1
65809,0.1333008,0.8745117,0.004882813000000001,-18.73779,5.310059,0.1831055,82.33704,-4.971313,171.9415,14.58333,-95.425,78.55,1
66119,0.37988279999999996,1.138184,-0.1196289,-2.502441,0.5493163999999999,3.051758,81.21094,-3.894653,174.8419,26.41667,2.9,-1.366667,1
66369,0.01025391,0.8803711,0.08447266,-3.662109,12.20703,-9.94873,82.96326,-5.740356,-178.017,12.6,0.875,-3.175,1
66659,0.2817383,1.146973,-0.13525389999999998,0.1831055,6.774902,-2.563477,77.55249,-5.092163,177.0227,25.93333,5.291667,5.858333,1
66909,0.0625,0.8408203,0.1137695,-5.371094,-14.34326,2.502441,83.28186,-3.878174,172.4854,14.175,-94.85,80.65,1
67159,0.20507809999999999,0.7441405999999999,-0.121582,-1.525879,19.53125,-4.516602,80.67261,-3.636475,173.0841,19.48333,-4.525,0.325,1
67389,-0.4287109,1.686523,0.2436523,3.90625,24.04785,22.94922,82.75452,-4.597778,178.363,17.65,4.425,2.5,1
67609,-0.030273440000000002,0.7495117,-0.01220703,-10.00977,-0.6103516,-0.5493163999999999,82.46887,-5.493164,-178.4949,8.625,-93.44167,77.75833,1
67959,0.7026367,1.573242,0.6196288999999999,22.88818,-29.60205,-13.06152,84.66614,-6.196289,171.5845,22.08333,3.325,0.5333333,1
68219,0.08105469,0.7924804999999999,-0.03369141,-17.39502,19.28711,-0.3051758,84.59473,-4.520874,171.7767,13.36667,-3.041667,-1.075,1
68529,-0.4331055,1.540039,0.2231445,-33.75244,-0.5493163999999999,17.51709,85.18799,-4.174805,-178.9673,9.85,-92.66666,78.81667,1
68839,-0.01806641,0.8710937999999999,0.10107419999999999,-3.967285,17.7002,-0.6713867,85.05066,-5.355835,-176.369,14.26667,0.6166667,-2.175,1
69079,0.28564449999999997,1.1010739999999999,-0.08837891,-1.159668,-9.033203,-7.8125,81.95801,-5.08667,176.3306,25.60833,6.5,7.708333,1
69349,0.06152344,0.8359375,0.06689453000000001,-23.62061,-10.49805,8.300781,86.55579,-3.158569,171.9305,15.25,-93.375,81.55833,1
69649,-0.1884766,1.04541,0.01220703,16.8457,-7.385254,7.141113,82.35352,-2.521362,174.7266,22.83333,1.266667,4.858333,1
69949,0.07177734,0.9506836,0.1303711,1.6479489999999999,10.43701,-5.310059,85.1001,-5.866699,-179.5715,9.0,-93.01667,78.425,1
70249,0.2910156,1.02002,0.06591797,7.93457,-25.63477,-2.380371,81.35925,-4.872437,172.8534,12.98333,-95.01667,77.84167,1
70539,0.02050781,0.8481445,0.08789063,-11.35254,-9.765625,1.708984,86.57776,-3.043213,167.8271,17.03333,-93.975,82.40833,1
70839,-0.230957,1.046387,-0.046875,25.93994,17.82227,10.98633,82.87537,-2.27417,174.2651,14.26667,-95.20834,79.2,1
71139,0.022460940000000002,0.9736328,0.1293945,-9.643555,14.77051,4.577637,85.35278,-5.861206,-179.0167,8.283334,-93.24167,78.375,1
71479,0.4541016,1.1166989999999999,0.0390625,14.64844,-27.16064,0.9155272999999999,79.45313,-5.256958,173.8916,21.825,3.258333,5.691667,1
71749,-0.1035156,1.199219,0.30175779999999996,1.708984,-4.333496,-18.12744,85.25391,-4.064941,171.0571,16.51667,1.466667,-2.15,1
71959,0.15039059999999999,0.7202147999999999,-0.1035156,-14.22119,2.990723,-8.850098,80.60669,-4.119873,172.9248,13.5,-95.84167,77.61667,1
72199,-0.1420898,1.516602,0.20947269999999998,42.66357,42.23633,26.36719,81.68884,-3.933105,176.0504,15.31667,11.58333,-2.5,1
72439,-0.03759766,0.7768554999999999,0.08349609,-6.164551,-2.685547,-4.760742,81.97449,-4.01001,-177.616,8.9,-94.95834,75.25,1
72689,0.2983398,0.9628905999999999,0.08154297,11.35254,-21.85059,-1.098633,78.6676,-4.63623,178.1049,23.74167,0.8416665999999999,6.675,1
72969,-0.12255859999999999,0.9101562999999999,0.07226563,-20.62988,1.8310549999999999,3.601074,84.34204,-2.367554,174.2157,14.05,-94.76667,79.09167,1
73280,-0.2045898,1.244141,-0.1757813,28.50342,4.150391,10.80322,80.48584,-1.71936,178.0774,28.55,4.0,5.308333,1
73569,0.04443359,0.9565429999999999,0.09863281,-5.92041,11.53564,8.483887,82.67761,-5.185547,-177.5995,8.008333,-93.66666,75.96667,1
73869,0.2617188,1.328613,-0.09130859,17.8833,7.019043,-8.972168,78.51379,-5.136108,178.8959,10.4,-94.25833,76.94167,1
74239,0.01611328,0.9311522999999999,0.10058589999999999,-10.68115,-16.60156,-6.896973,84.66064,-2.774048,176.0284,13.741670000000001,0.30000000000000004,-3.25,1
74479,0.02441406,1.26123,-0.1333008,-3.4790039999999998,12.75635,10.13184,80.60669,-2.268677,177.572,12.36667,-95.71667,75.575,1
74749,-0.044921880000000004,1.2685549999999999,0.26269529999999996,36.62109,12.26807,6.286621,82.47437,-5.388794,-177.7972,15.01667,2.133333,-0.5,1
75000,-0.152832,0.7910155999999999,0.03369141,-16.11328,-64.08691,-6.103516,78.21716,-4.048462,178.6707,18.64167,-2.733333,2.8083329999999997,1
75309,-0.03710938,1.1791989999999999,0.1401367,-12.69531,-5.187988,-6.530762,83.93555,-1.203003,174.9628,12.44167,1.15,-1.691667,1
75609,-0.04833984,0.9975586,0.03857422,13.91602,23.55957,1.403809,80.05188,-1.142578,175.2319,22.09167,1.633333,4.775,1
75949,0.10693359999999999,1.073242,0.1489258,-1.8310549999999999,31.37207,4.272461,83.35327,-5.108643,-179.1595,14.5,0.3833333,-1.95,1
77159,0.04150391,0.9848633,0.08154297,-5.67627,28.80859,7.202148,85.02319,-5.421753,-177.0062,13.56667,-0.075,-1.508333,1
77379,-0.09570313,0.6567383,-0.08447266,-15.50293,-41.56494,-2.01416,82.2052,-4.608765,-177.215,19.00833,0.125,0.9,1
77589,-0.028808590000000002,1.209473,0.2900391,13.3667,-6.530762,-8.361816,88.22571,-3.543091,174.3585,13.71667,-91.76667,80.56667,1
77829,0.1723633,0.7822266,0.02929688,-23.74268,10.86426,3.967285,84.95728,-3.823242,172.9907,12.225,-1.525,-1.525,1
78069,-0.34912109999999996,1.48291,0.16601559999999999,24.29199,20.32471,21.24023,86.07239,-4.603271,177.0721,12.26667,-92.71667,77.525,1
78319,0.05371094,0.9477538999999999,0.15136719999999998,-2.929688,13.79395,7.080078,87.52808,-6.17981,179.2639,13.01667,-0.01666667,-2.308333,1
78610,0.07275391,1.166016,-0.05419922,-7.93457,-13.5498,0.12207029999999999,85.03418,-5.19104,173.5565,13.59167,-92.8,77.30833,1
78909,0.1835938,0.8867187999999999,-0.015625,-12.93945,-11.77979,3.2958979999999998,90.68115,-2.763062,168.4039,12.63333,-1.033333,-3.066667,1
79199,0.31054689999999996,0.7333984,-0.02294922,-11.84082,40.83252,-10.62012,87.73682,-2.411499,169.0631,19.85,-4.258333,-0.01666667,1
79419,0.02392578,1.222168,0.3310547,16.05225,11.23047,10.68115,89.76379,-5.916138,178.7476,11.125,-91.6,77.95834,1
79699,-0.006347656,0.7250977,-0.02294922,-25.57373,-56.39648,-0.42724609999999996,86.55579,-4.993286,176.4624,12.58333,-93.13333,75.99167,1
79999,0.2578125,1.233887,0.26269529999999996,57.86133,-34.42383,1.159668,91.23047,-4.954834,169.7333,21.875,3.791667,0.9416667,1
80229,0.08740234,0.828125,-0.009277344,-16.78467,21.42334,-0.4882813,90.81299,-2.658691,167.7777,18.08333,-92.98333,79.76667,1
80509,0.017089840000000002,1.335938,-0.04589844,39.00146,43.09082,16.11328,90.35156,-1.71936,174.6222,16.06667,-93.01667,78.025,1
80819,0.05712891,1.067383,0.1157227,-1.037598,11.1084,0.5493163999999999,90.34607,-4.130859,177.193,14.775,0.6083333,-1.225,1
81059,0.3237305,0.9042969,0.04785156,3.601074,-43.64014,2.258301,88.3905,-3.845215,168.7555,21.85,-1.95,7.758333,1
81369,-0.05761719,1.027344,0.04296875,-18.18848,-14.70947,-1.037598,94.94934,-1.620483,161.8451,13.79167,0.3083333,-3.683333,1
81609,0.08154297,0.7177734,-0.11669919999999999,-16.6626,9.58252,-8.850098,89.60449,-2.351074,162.5153,16.58333,2.375,0.5416667,1
81819,0.2666016,1.128418,0.30126949999999997,-6.835938,36.31592,20.32471,92.26868,-3.9990229999999998,170.0299,15.95,-91.875,78.61667,1
82059,0.006835938000000001,0.8598633,0.09667969,-5.187988,4.760742,-5.187988,91.31836,-5.31189,173.9246,13.30833,-0.3083333,-3.641667,1
82299,-0.08154297,1.255859,-0.1040039,27.46582,-53.4668,-3.173828,87.87964,-5.361328,168.1238,16.725,-92.8,76.35833,1
82539,0.06298828000000001,1.094238,0.10107419999999999,-4.516602,-1.708984,-0.42724609999999996,92.66968,-2.977295,163.5535,13.13333,1.525,-2.4,1
82819,0.1381836,0.8383788999999999,-0.028808590000000002,-22.27783,5.249023,-2.868652,88.41248,-3.323364,162.1088,12.68333,-1.525,-0.4583333,1
83039,0.18261719999999998,1.111328,-0.24462889999999998,14.64844,23.49854,-6.286621,88.46191,-2.268677,166.0968,18.43333,2.708333,1.15,1
83249,0.04003906,0.9101562999999999,0.08642578000000001,2.441406,-7.324219,-2.13623,89.78027,-4.77356,169.8486,12.94167,-0.7916667,-1.8333329999999999,1
83539,0.121582,1.123047,-0.10693359999999999,-1.7700200000000001,-16.23535,-0.6713867,86.17126,-3.834229,161.9,22.3,-93.20834,76.84167,1
83799,0.2070313,1.244141,0.2421875,-0.4882813,0.0,-8.911133,91.66992,-2.422485,156.6046,14.96667,1.15,-3.15,1
84049,0.1933594,0.7802734,-0.1230469,-15.50293,23.37646,-6.469727,84.76501,-1.582031,156.8793,26.63333,-94.26667,76.20834,1
84349,0.16650389999999998,0.8959961,0.40332029999999996,1.464844,21.48438,15.31982,85.97351,-3.35083,163.0591,23.13333,-93.25833,77.24167,1
84619,-0.0234375,0.8212891,0.01464844,-11.16943,-15.99121,-9.277344,86.90735,-3.389282,163.1305,12.76667,-0.075,-4.041667,1
84869,0.24853519999999998,1.494629,0.4082031,28.44238,27.46582,-12.51221,85.61096,-2.6477049999999998,154.4403,16.64167,5.7,0.1166667,1
85179,0.1645508,0.8398437999999999,0.08007813,-14.4043,-14.5874,-1.281738,84.75952,-2.746582,149.3207,12.525,-1.358333,-0.9833333999999999,1
85509,-0.01611328,1.295898,0.1435547,31.67725,35.46143,19.9585,83.99048,-2.362061,149.2932,15.95,8.341666,0.06666667,1
85819,0.03125,0.8779296999999999,0.06884766,-2.563477,-6.225586,-11.04736,85.8252,-4.01001,148.8593,12.425,-0.9166667,-2.9,1
86059,0.06201172,1.397461,-0.1289063,43.88428,-35.33936,-7.629395,84.19922,-3.328857,140.3284,35.46667,-92.50833,78.61667,1
86299,-0.02001953,1.074219,0.09033203000000001,-10.25391,-19.89746,-2.075195,87.91809,-2.054443,135.6812,12.58333,0.9500000000000001,-3.375,1
86539,0.03125,0.8647461,0.1289063,7.263184,33.75244,-4.089355,82.40845,-1.142578,134.4891,40.125,-93.275,76.01667,1
86789,0.1450195,1.134277,0.28125,9.887695,14.34326,18.12744,85.578,-3.598022,137.818,22.06667,2.208333,0.4583333,1
87059,-0.07080078000000001,0.8510742,0.07470703000000001,-2.441406,-3.051758,-11.77979,85.08911,-4.564819,141.2732,13.95833,-0.3416667,-3.083333,1
87279,-0.128418,1.083008,-0.1567383,8.056641,-20.81299,-0.3051758,82.7655,-4.77356,134.9066,38.46667,-92.89167,77.19167,1
87559,0.08886719,0.8505859,0.04931641,-12.93945,-18.9209,6.103516,88.51135,-2.609253,125.2881,43.675,-91.16666,78.16666,1
87849,0.1289063,0.8061522999999999,-0.1303711,-4.394531,12.51221,-11.41357,84.85291,-2.559814,125.733,21.00833,-4.633333,0.1916667,1
88099,0.20605469999999998,1.191406,0.2822266,10.98633,28.50342,16.23535,87.02271,-5.564575,130.9296,39.44167,-92.19167,79.06667,1
88369,-0.05371094,0.765625,-0.1435547,-24.10889,-34.05762,-1.525879,84.25964,-4.400024,132.4677,40.43333,-93.15,77.38333,1
88669,0.1777344,1.478027,0.01220703,36.31592,-69.33594,1.403809,86.34155,-4.740601,124.7607,20.14167,2.8083329999999997,1.325,1
88909,0.16601559999999999,0.8374022999999999,0.04052734,-13.79395,5.004883,6.652832,86.90186,-4.031982,117.1033,13.1,-2.083333,-2.208333,1
89189,0.390625,1.261719,0.006835938000000001,27.34375,54.74854,6.408691,85.22095,-2.318115,120.3278,18.04167,3.641667,0.5166666999999999,1
89529,-0.03515625,0.9169921999999999,0.05761719,-11.71875,1.464844,-7.93457,85.86365,-4.724121,125.788,12.91667,0.3333333,-3.225,1
89799,-0.08349609,1.055664,-0.20556639999999998,23.74268,-49.43848,2.075195,82.46887,-4.938354,117.6636,15.28333,2.8083329999999997,4.191667,1
90169,0.08251953000000001,0.8452147999999999,-0.020996090000000002,-19.28711,4.333496,-1.098633,85.578,-3.6859129999999998,111.6925,50.68333,-92.16666,74.5,1
90399,-0.06445313,1.165039,-0.1733398,15.44189,0.5493163999999999,8.300781,83.84216,-2.312622,115.7574,24.84167,2.916667,0.3833333,1
90679,0.0390625,0.9863280999999999,0.3862305,-6.591797,29.1748,15.01465,85.03967,-4.487915,118.1525,16.39167,3.641667,0.09166667,1
90889,-0.02978516,0.8925780999999999,0.08203125,-7.995605,-20.56885,-10.49805,84.86938,-4.493408,118.4601,13.125,-1.65,-3.166667,1
91099,0.2797852,1.421387,-0.01660156,55.29785,-56.27441,-2.929688,84.39697,-5.443726,108.8251,50.51667,-92.4,73.625,1
91379,0.002441406,1.066895,0.2001953,-20.81299,-16.90674,0.06103516,87.72583,-3.724365,103.5132,14.65833,0.8833333,-2.983333,1
91589,0.1630859,0.7519530999999999,-0.01660156,3.234863,28.07617,-9.460449,80.84839,-3.795776,101.3928,20.00833,-2.575,0.525,1
91899,0.01855469,0.9667969,0.4086914,26.36719,6.9580079999999995,3.417969,81.13953,-3.076172,109.8138,51.48333,-92.375,71.63333,1
92209,0.009277344,0.8393554999999999,-0.0034179690000000003,-4.760742,-22.09473,6.591797,82.95227,-3.35083,111.7529,16.69167,-1.141667,-0.1833333,1
92539,0.1835938,0.7666016,-0.20507809999999999,35.21729,-68.35938,0.7324219,86.80847,-4.839478,98.53088,24.00833,-1.0,6.875,1
93789,-0.22070309999999999,1.195313,0.2817383,29.41895,-32.95898,-11.47461,87.65991,-4.01001,89.07166,56.41667,-91.73333,63.74166,1
94089,0.1420898,0.7294921999999999,0.06933594,-16.35742,-2.075195,6.408691,86.66565,-4.191284,85.13855,13.375,-0.7583333,-2.841667,1
94329,0.5029296999999999,1.307129,0.1606445,6.652832,11.84082,2.258301,83.18848,-3.872681,85.99548,56.98333,-91.70834,60.225,1
94599,-0.078125,0.840332,0.1137695,-5.615234,-2.13623,-12.39014,85.02869,-5.180054,94.28467,55.39167,-92.075,63.575,1
94909,0.2270508,0.8417969,0.07714844,-1.220703,-46.99707,1.098633,80.38147,-4.257202,88.10486,19.44167,-3.541667,7.391667,1
95159,0.07861328000000001,1.139648,0.13916019999999998,-12.08496,-4.882813,-5.004883,87.41821,-3.317871,82.62268,13.81667,0.225,-2.191667,1
95429,-0.06738281,0.8012695,0.1772461,0.0,49.1333,-14.16016,82.43591,-2.801514,87.03369,23.26667,3.95,1.466667,1
95799,-0.07275391,0.7900391,0.08447266,3.4790039999999998,-10.00977,-3.356934,84.49036,-6.124878,92.75208,56.40833,-92.05,63.21667,1
96039,-0.02148438,0.8491211,0.04345703,-18.18848,-67.81006000000001,-0.1831055,81.39221,-6.28418,87.85767,18.525,-1.758333,1.7,1
96309,-0.2236328,0.8920897999999999,0.1923828,14.28223,31.00586,-23.68164,87.22046,-5.559082,81.68335,20.45833,1.158333,-0.425,1
96519,0.21337889999999998,0.7612304999999999,0.03076172,-15.68604,22.2168,5.493164,86.39648,-4.262695,83.15552,12.08333,-0.375,-2.441667,1
96729,0.3525391,1.268066,0.08642578000000001,18.00537,43.51807,5.371094,83.78723,-2.8125,90.23071,57.69167,-90.23333,63.925,1
96969,0.08886719,1.192383,0.13525389999999998,0.3051758,9.155273,5.187988,86.21521,-5.696411,96.50391,14.06667,1.4583329999999999,-0.9,1
97219,0.08447266,0.8232421999999999,0.01611328,3.356934,-58.53271,-3.234863,83.49609,-4.575806,87.81372,57.28333,-90.59167,61.35,1
97469,-0.03417969,1.335938,0.4560547,0.9765625,-52.91748,-21.3623,88.56079,-3.213501,82.23267,17.15,1.633333,-2.458333,1
97739,0.1235352,0.7885742,0.041015630000000004,-8.117676,9.460449,4.577637,86.68762,-3.779297,81.11755,12.23333,-0.9500000000000001,-1.641667,1
97949,0.1235352,0.7885742,0.041015630000000004,-8.117676,9.460449,4.577637,86.68762,-3.779297,81.11755,26.0,1.4583329999999999,6.216667,1
98169,0.07666016,0.9541016,0.1333008,-0.06103516,16.23535,2.01416,88.37952,-5.614014,93.46619,13.15833,0.075,-1.758333,1
98439,0.4023438,1.164063,0.06787109,10.98633,-2.01416,-2.258301,85.90759,-5.103149,87.65442,57.30833,-89.3,62.18333,1
98709,-0.1171875,1.257813,0.1367188,14.89258,-29.23584,-10.19287,92.38953,-3.883667,84.41895,17.38333,1.616667,-1.366667,1
98959,0.1616211,0.7807617,-0.08740234,-25.57373,16.35742,-10.37598,87.995,-3.658447,83.94653,59.64167,-88.875,61.74166,1
99269,0.2431641,0.9941405999999999,0.2416992,-11.16943,52.97852,19.34814,90.3186,-5.701904,91.90613,18.275,2.625,-1.391667,1
99599,-0.08691406,0.7514647999999999,-0.08642578000000001,-27.52686,-35.70557,-1.281738,86.68213,-4.378052,93.00476,16.06667,1.925,-0.4333333,1
99869,-0.1630859,1.258789,0.2387695,17.45605,-31.37207,-16.41846,92.09839,-2.296143,82.6062,17.5,0.6583333,0.025,1
100239,-0.2070313,1.010254,0.04248047,18.98193,21.72852,-1.464844,91.68091,-0.9777832,82.95776,62.0,-87.525,63.525,1
100510,0.07958984,0.8930663999999999,0.1342773,-6.286621,33.38623,12.63428,94.40002,-4.350586,87.5885,16.53333,0.2916667,-1.091667,1
100749,-0.03466797,0.8208008,-0.046875,-20.62988,-5.249023,-10.74219,92.81799,-3.411255,88.48389,11.64167,-3.1,-2.533333,1
100969,0.1118164,1.373047,-0.06396484,45.10498,2.563477,-6.652832,93.54858,-2.466431,83.47412,60.675,-88.05,65.24167,1
101199,-0.06396484,1.099609,-0.03369141,-14.22119,-4.272461,4.272461,95.224,-0.9008788999999999,81.97449,13.075,-0.1833333,-2.016667,1
101459,-0.08837891,0.9365234,0.11425779999999999,-6.835938,32.04346,-2.624512,90.92834,-1.543579,85.52856,23.76667,1.066667,3.491667,1
101769,0.1035156,1.001465,0.128418,-13.3667,29.47998,8.239746,90.70862,-6.256714,90.60425,56.63334,-90.60833,65.85,1
102079,0.06884766,0.8330078,0.09082031,15.38086,-20.81299,-3.356934,85.26489,-5.410767,87.62146,23.44167,2.166667,8.233334,1
102399,0.01904297,0.9394530999999999,0.05224609,-1.159668,-1.708984,-6.774902,91.79077,-2.351074,82.04041,12.991670000000001,0.7416667,-2.133333,1
102679,-0.152832,0.918457,0.0034179690000000003,17.63916,-4.089355,-0.4882813,88.12683,-3.218994,88.86841,58.95,-89.69167,64.16666,1
102949,0.2592773,1.008301,0.4335938,2.990723,16.47949,14.16016,91.07117,-6.05896,90.02747,16.775,2.616667,0.6416666999999999,1
103189,-0.1191406,0.7666016,0.04150391,-24.16992,-53.89404,-1.8310549999999999,88.27515,-6.075439,90.92834,55.875,-91.21667,65.13333,1
103489,0.2480469,1.255859,0.15136719999999998,1.220703,-19.53125,-6.652832,93.64746,-3.652954,84.17175,14.16667,0.4,-1.6,1
103829,0.2602539,0.7524413999999999,-0.07714844,-18.06641,59.69238,-13.73291,88.73108,-2.905884,84.75403,21.33333,-6.791667,-1.216667,1
104109,-0.03417969,1.207031,0.2841797,22.58301,14.70947,-1.159668,90.75256,-5.542603,90.76904,13.61667,1.183333,-0.47500000000000003,1
104439,-0.07470703000000001,0.7426758,-0.04199219,-17.7002,-65.24658,6.835938,87.93457,-5.163574,88.53882,18.9,-4.433333,0.2583333,1
104749,0.19824219999999998,1.302734,0.1777344,-5.7983400000000005,-9.82666,-7.141113,95.58105,-2.488403,80.354,13.45833,0.1833333,-1.533333,1
104979,0.1040039,0.7041016,-0.09228516,-20.50781,15.56396,2.380371,92.03247,-3.015747,79.89258,16.95833,0.6916667,-2.108333,1
105199,0.16601559999999999,1.001953,0.3364258,13.42773,8.117676,25.93994,92.69165,-4.910889,88.11584,54.76667,-89.90833,66.30833,1
105439,-0.04150391,0.8574219,0.02001953,10.00977,-3.051758,-15.44189,92.09839,-6.690674,93.46619,11.725,-0.8583333999999999,-4.583333,1
105679,-0.1181641,1.063477,-0.2929688,22.64404,-6.896973,-0.6103516,89.82971,-6.729126,88.75305,54.15,-90.59167,63.8,1
105919,0.03369141,1.15625,0.09521484000000001,-12.63428,-10.98633,-3.662109,95.3064,-4.421997,85.93506000000001,12.85,0.1333333,-4.591667,1
106199,0.1152344,0.6943359,-0.06835938,-19.16504,-12.3291,-7.568359,90.58228,-4.196777,83.64441,14.5,1.383333,0.45,1
106419,0.2265625,1.225098,0.25,43.02979,10.00977,16.11328,91.92261,-4.921875,84.75952,55.63334,-89.81667,64.46667,1
106689,-0.03710938,0.7592772999999999,-0.09130859,-20.32471,1.159668,-0.7324219,89.31885,-5.789795,93.68591,54.3,-90.03333,65.89167,1
106989,-0.07324219,1.144531,-0.171875,20.32471,-43.396,-3.967285,90.00549,-6.135864,87.995,18.25,2.366667,4.9,1
107239,0.1450195,0.7202147999999999,0.03613281,-16.78467,-15.07568,3.051758,94.33411,-3.2958979999999998,80.56274,13.73333,-2.616667,-3.366667,1
107509,0.32519529999999996,1.233398,0.1123047,9.399414,19.59229,12.57324,91.89514,-3.186035,84.11133,57.38334,-88.51667,62.26667,1
107779,0.09765625,1.14502,0.1499023,-7.263184,27.34375,9.70459,92.4939,-6.767578,89.20349,14.66667,0.025,-1.316667,1
108049,0.21728519999999998,0.8188477,0.1181641,-1.953125,-50.90332,2.319336,88.40149,-6.190796,85.5835,21.00833,-3.666667,5.275,1
108329,-0.09326172,1.199707,0.08398438,-8.178711,-1.403809,-10.37598,93.49365,-3.361816,84.00696,12.5,1.808333,-3.225,1
108669,0.02148438,0.8369141,0.041015630000000004,4.943848,51.51367,-7.385254,88.36304,-3.290405,87.92358,21.425,2.416667,7.066667,1
108939,0.1357422,1.020996,0.15478519999999998,-4.516602,30.76172,7.629395,90.42297,-7.338867,96.1908,12.64167,0.9500000000000001,-1.908333,1
109309,0.6381836,1.571289,0.6098633,51.02539,-37.35352,-7.995605,90.4834,-6.322632,88.74207,55.91667,-89.96667,63.50834,1
109569,0.04248047,1.011719,0.0625,-6.835938,-23.4375,-0.3051758,93.65845,-3.427734,86.02295,12.03333,0.4583333,-2.891667,1
110799,0.06396484,0.9194336,0.09375000000000001,-8.911133,1.8310549999999999,-0.5493163999999999,94.0155,-3.356323,79.953,11.65,-0.25,-3.241667,1
111009,0.1381836,0.7431641,-0.1293945,-3.417969,27.09961,-7.995605,90.30212,-3.218994,82.29309,23.2,-5.133333,0.8,1
111229,-0.3061523,1.61084,0.5322266,-68.84766,35.5835,32.2876,92.90588,-5.026245,90.20325,21.68333,2.891667,2.716667,1
111439,-0.03466797,0.6938477,-0.026367190000000002,-17.8833,-29.23584,-6.225586,90.8844,-6.278687,93.49365,55.71667,-89.975,65.79166,1
111689,-0.06640625,1.020508,-0.1713867,18.24951,-56.33545,3.2958979999999998,91.91711,-6.108398,86.03943,12.21667,2.8,3.291667,1
111929,-0.01367188,1.173828,0.1181641,-19.40918,-1.403809,-6.103516,96.02051,-3.592529,84.80896,13.89167,0.1833333,-2.616667,1
112139,0.1928711,1.013184,0.140625,-17.8833,35.21729,0.5493163999999999,90.77454,-3.702393,87.72034,22.39167,5.941667,2.0,1
112449,0.11865229999999999,0.9487304999999999,0.1259766,-1.464844,21.72852,0.793457,92.68066,-6.745605,93.71338,54.325,-89.96667,66.65,1
112759,0.22949219999999998,0.9829102,0.01367188,5.249023,-7.568359,6.225586,91.15356,-5.866699,89.90112,24.63333,1.066667,9.483334,1
113049,-0.07177734,0.9912109,0.0703125,-13.3667,-16.78467,-5.92041,96.76758,-3.790283,86.52283,56.95833,-89.38333,64.21667,1
113359,-0.15039059999999999,0.902832,0.1416016,-0.24414059999999999,13.73291,-8.789063,91.85669,-2.807007,87.67639,57.65,-89.83334,62.5,1
113619,0.3842773,1.212402,0.453125,-31.92139,27.52686,30.82275,93.99902,-5.877686,91.32385,17.14167,2.858333,-0.5166666999999999,1
113879,-0.015625,0.7358397999999999,-0.12744139999999998,-25.39063,-37.96387,-7.873535,91.13159,-5.998535,89.45068,17.98333,-1.466667,-0.6416666999999999,1
114180,-0.49755859999999996,1.100586,0.2197266,7.019043,18.37158,-18.49365,95.72937,-2.719116,81.67786,14.96667,0.1833333,-2.466667,1
114519,0.23632809999999999,0.7504883,-0.11474609999999999,-5.126953,14.70947,-9.094238,90.67566,-3.175049,83.64441,19.59167,-0.1833333,1.558333,1
114719,-0.1499023,1.504883,0.2895508,56.27441,36.86523,25.5127,94.72412,-4.048462,90.54382,14.84167,7.891667,-4.125,1
114939,-0.05957031,0.7099609,0.006347656,-19.34814,-22.27783,-14.70947,92.58179,-6.811523,96.12488,59.53333,-87.33334,65.125,1
115209,0.4086914,1.173828,-0.1196289,21.78955,-15.99121,-14.95361,91.09314,-5.355835,85.3363,28.85,7.675,1.191667,1
115489,0.15136719999999998,0.8178711,0.03955078,-15.625,-10.37598,8.789063,95.31189,-2.136841,81.51855,65.975,-84.6,58.75,1
115729,0.23632809999999999,0.7900391,-0.09960938,-12.39014,59.021,-6.896973,92.36206,-2.861938,83.63892,18.00833,-4.575,3.008333,1
115939,-0.2431641,0.8505859,0.6064453,-77.63672,-20.01953,21.91162,95.17456,-5.6524659999999995,87.07764,22.225,2.791667,0.7333333,1
116159,0.02294922,0.8081054999999999,-0.08007813,5.432129,14.64844,2.075195,95.4657,-8.041992,88.87939,13.325,-0.30000000000000004,-4.0,1
116369,-0.1123047,1.105469,-0.22900389999999998,18.00537,-47.18018,-0.5493163999999999,91.72485,-6.569824,82.57874,18.675,3.075,4.741667,1
116679,0.1538086,0.7358397999999999,-0.0078125,-10.62012,9.338379,4.394531,95.96558,-3.806763,82.37,67.36667,-83.80833,62.25,1
116979,0.3300781,1.353516,0.26269529999999996,34.5459,25.57373,13.06152,93.58704,-3.9935300000000002,82.49084,18.75,10.11667,-3.425,1
117289,0.03857422,0.765625,0.05322266,-13.06152,14.95361,-5.432129,92.54883,-7.075195,88.05542,64.46667,-86.025,65.46667,1
117589,0.1000977,1.525391,0.08886719,70.43457,-40.03906,-5.432129,93.19702,-6.141357,82.68311,65.36667,-85.10833,62.975,1
117859,-0.03564453,0.8735352,0.06982422,-18.43262,-20.75195,-4.394531,94.6582,-2.993774,83.06763,13.26667,0.75,-3.391667,1
118109,-0.12255859999999999,1.042969,0.03271484,11.16943,25.63477,0.4882813,91.15356,-2.999268,87.995,24.375,0.7083332999999999,4.608333,1
118419,0.17822269999999998,1.072754,0.1757813,-3.90625,19.83643,10.13184,93.94409,-7.657471,93.71338,13.10833,0.55,-2.075,1
118719,0.4257813,1.062988,0.05908203,9.82666,-24.10889,-0.4882813,90.47791,-6.317139,86.69312,24.575,2.425,6.658333,1
119059,-0.01074219,0.9291992,0.04296875,-10.68115,-0.7324219,4.577637,96.55884,-2.966309,82.80396,14.20833,0.06666667,-2.8,1
119289,-0.21386719999999998,0.9677734,0.08642578000000001,9.887695,-4.150391,-1.953125,92.59827,-4.064941,89.50562,65.18333,-87.18333,68.65833,1
119539,0.06640625,1.071289,0.4233398,-13.97705,76.47705,21.66748,96.1908,-6.888428,92.94983,18.01667,1.933333,-1.6,1
119779,-0.07080078000000001,0.6772461,-0.1196289,-33.5083,-49.01123,-4.02832,90.76355,-6.05896,94.42749,61.7,-89.56667,72.025,1
120019,0.1557617,1.396484,-0.2670898,47.9126,-17.51709,-12.08496,93.63098,-4.806519,84.87488,23.05,5.266667,2.083333,1
120289,-0.005859375,1.044922,0.08398438,-8.789063,-7.019043,-8.605957,96.41602,-1.686401,83.44666,12.89167,1.183333,-3.441667,1
120509,0.1367188,0.8466796999999999,-0.08496094,-14.83154,2.075195,-10.68115,91.80176,-1.8731689999999999,83.32581,13.866670000000001,0.6416666999999999,1.775,1
120719,0.4868164,1.248047,0.009765625,10.00977,31.86035,19.59229,97.01477,-3.438721,87.19299,17.46667,4.275,-0.8333332999999999,1
120999,-0.04394531,0.8188477,-0.02197266,-19.59229,-8.117676,-2.563477,93.29041,-5.471191,94.76807,58.73333,-90.4,74.15,1
121269,0.2114258,0.9462891,0.01416016,0.12207029999999999,-19.89746,3.723145,92.04895,-5.93811,89.42322,20.175,-1.166667,4.341667,1
121519,0.2167969,1.003418,0.1318359,1.464844,19.89746,-2.502441,99.31091,-3.197021,84.67712,61.53333,-89.125,72.84167,1
121819,-0.03222656,1.026367,0.01025391,4.272461,116.6992,-19.71436,94.92737,-3.488159,105.4962,54.3,-88.84167,81.775,1
122089,-0.07861328000000001,0.9399413999999999,0.1694336,-32.04346,92.77344,-6.835938,89.07166,-2.719116,123.1567,17.90833,1.441667,-2.866667,1
122339,-0.1577148,0.9990234,0.078125,2.807617,115.2954,1.89209,84.80347,0.4284668,156.6321,17.275,0.275,-0.05,1
122639,-0.22070309999999999,0.9589844,0.03369141,-6.164551,60.30273,23.86475,84.40796,0.06591797,-174.5178,17.975,0.3083333,-0.8583333999999999,1
122949,-0.121582,1.151855,0.06738281,-1.281738,-5.493164,3.601074,84.50134,-4.207764,-166.344,17.325,2.341667,0.08333334,1
123249,0.005371094000000001,1.057129,0.16259769999999998,6.469727,76.84326,37.04834,82.39746,-8.063965,-148.2385,17.11667,0.4666667,-1.475,1
123619,0.2670898,0.9833984,-0.028808590000000002,4.516602,77.27051,5.432129,75.50354,-9.563599,-122.1075,-13.49167,-79.35833,45.84167,1
123889,0.09472656,0.8974609,0.3388672,14.5874,31.31104,14.34326,76.15173,-8.173828,-109.9347,15.575,3.258333,1.291667,1
124129,-0.03076172,0.8759766,0.06738281,-9.82666,11.2915,7.324219,76.93176,-4.954834,-96.92688,-8.833333,-77.625,29.01667,1
124369,-0.2749023,1.28418,-0.1181641,29.78516,-66.89453,-3.112793,78.90381000000001,-6.091919,-100.9039,11.425,6.275,2.058333,1
124609,0.2480469,1.163086,0.23632809999999999,-1.281738,-0.7324219,7.507324,83.98499,-4.987793,-107.287,15.25833,2.141667,-0.8583333999999999,1
124829,0.1577148,0.7885742,0.01757813,2.197266,42.66357,-7.995605,80.12878,-3.845215,-103.3429,20.45833,-2.041667,1.216667,1
125139,0.07324219,1.061523,0.17382809999999999,6.225586,11.2915,-4.577637,82.05688,-4.229736,-95.76233,-9.625,-77.44167,30.925,1
125449,-0.05029297,0.8212891,0.05419922,-1.159668,-52.36816,5.371094,78.80493,-2.9608149999999998,-97.10266,22.5,2.1,4.166667,1
125739,-0.01757813,1.053223,0.2148438,-10.0708,0.9765625,2.319336,83.30933,-1.713867,-103.4912,-11.05,-79.11667,37.5,1
126049,0.056640630000000004,0.8515625,0.2192383,20.01953,30.57861,-6.347656,79.39819,-1.560059,-102.0081,-10.14167,-78.44167,35.30833,1
126319,0.1386719,0.9897461,0.6000977,-23.13232,57.61719,14.70947,79.93103,-1.658936,-99.27795,18.275,3.833333,1.05,1
127549,0.3862305,1.01709,0.47460939999999996,23.25439,9.94873,5.004883,82.54578,-2.807007,-103.8428,14.88333,3.266667,0.375,1
127779,-0.08203125,0.7460937999999999,-0.024902340000000002,-29.96826,-18.85986,7.873535,81.2384,-2.005005,-100.838,21.43333,1.65,1.208333,1
128059,0.08740234,1.071777,0.3305664,0.7324219,-9.399414,-1.953125,83.172,-0.04394531,-107.7924,-10.55833,-78.16666,42.19167,1
128339,0.04931641,0.7856445,0.09375000000000001,-20.01953,12.39014,7.263184,80.74951,-0.9667969,-106.0181,12.65833,-0.075,-1.7083329999999999,1
128579,-0.1694336,1.47168,0.6821288999999999,-5.67627,7.995605,18.06641,80.1178,-0.7745361,-103.255,21.66667,5.816667,2.45,1
128919,-0.1337891,0.6699219,0.07861328000000001,-11.2915,8.056641,-9.460449,80.65613,-0.13732909999999998,-101.4368,12.675,0.17500000000000002,-1.891667,1
129149,0.14697269999999998,1.447754,-0.09765625,21.48438,8.117676,2.380371,79.50256,-1.389771,-104.0735,24.80833,8.616667,3.95,1
129339,0.125,1.29834,0.3129883,0.9155272999999999,31.25,10.19287,84.32556,0.7305908,-108.5779,13.53333,2.766667,-2.358333,1
129549,0.10644529999999999,0.7167969,0.04736328,-17.8833,4.943848,4.455566,80.99121,-0.8624267999999999,-107.1057,13.40833,3.308333,-1.841667,1
129759,-0.144043,1.199707,0.34179689999999996,12.81738,10.43701,19.9585,79.96399,-1.153564,-102.3926,-6.991667,-77.58334,36.30833,1
129999,0.02148438,0.8208008,0.1762695,12.3291,40.95459,-1.708984,81.54602,-1.686401,-97.36084,12.29167,2.25,-1.758333,1
130249,-0.18261719999999998,0.7392578,0.0,-11.16943,-29.41895,4.821777,78.60718,-1.148071,-94.2627,23.25,-0.6000000000000001,-1.016667,1
130469,0.08398438,1.158203,0.2416992,-16.47949,8.666992,5.004883,82.40845,0.8239746,-102.2278,13.10833,1.9916669999999999,-1.316667,1
130769,0.1879883,0.7158203,0.06201172,-17.94434,0.3662109,-6.896973,79.3158,0.2801514,-103.8043,12.83333,2.225,2.725,1
130979,0.1879883,0.7158203,0.06201172,-17.94434,0.3662109,-6.896973,79.3158,0.2801514,-103.8043,17.76667,11.01667,-1.975,1
131199,-0.05615234,0.7851562999999999,0.09130859,-6.286621,-33.02002,-16.60156,82.40295,0.4284668,-104.1833,12.51667,-0.275,-3.866667,1
131469,-0.0078125,1.4550779999999999,0.02783203,22.3999,-53.6499,-2.990723,79.0741,-0.2416992,-114.5435,-6.775,-83.45834,42.65,1
131739,-0.01074219,1.102051,0.159668,-21.97266,21.85059,-0.6103516,81.35925,0.8349609,-115.8728,13.44167,1.741667,-2.75,1
132009,0.005371094000000001,0.9062500000000001,0.017089840000000002,34.36279,35.82764,10.68115,78.34351,0.5657959,-109.9731,24.19167,1.608333,3.425,1
132289,0.1523438,1.068848,0.22119139999999998,-1.159668,38.08594,1.89209,82.31506,-0.6481933999999999,-103.1561,-4.05,-81.41666,35.15,1
132569,-0.1123047,0.6733397999999999,-0.07568359,-19.77539,-8.178711,5.249023,80.88135,-0.02197266,-99.87671,15.50833,1.966667,1.383333,1
132819,-0.041015630000000004,1.0625,0.4311523,7.141113,-27.16064,-23.86475,84.17175,1.565552,-107.4573,14.29167,1.225,-2.466667,1
133149,0.20214839999999998,0.7177734,-0.07275391,-10.55908,17.57813,-8.728026999999999,80.22217,0.4614258,-109.1052,23.05833,-3.791667,5.991667,1
133389,0.17871089999999998,0.9501953,0.3754883,21.66748,-3.356934,10.92529,81.58447,-1.620483,-104.4305,-4.966667,-80.15,35.6,1
133629,-0.0034179690000000003,0.8095703,0.03808594,-9.94873,1.6479489999999999,-10.86426,83.51257,-0.9777832,-103.8318,12.26667,-1.15,-4.141667,1
133869,0.269043,1.508789,0.4448242,27.16064,-25.20752,-9.155273,81.40869,-0.6921387,-109.9567,-5.441667,-80.85,38.13334,1
134119,0.006347656,0.8251953,0.184082,-14.95361,-4.760742,1.098633,82.58972,0.3186035,-111.2091,13.45,1.208333,-1.5833329999999999,1
134399,0.10839839999999999,0.7680663999999999,-0.05908203,-8.361816,20.01953,-10.98633,79.3103,0.4998779,-108.4296,18.45,1.191667,3.091667,1
134609,0.10839839999999999,0.7680663999999999,-0.05908203,-8.361816,20.01953,-10.98633,79.3103,0.4998779,-108.4296,15.6,9.2,-0.01666667,1
134829,-0.02734375,0.7851562999999999,0.03271484,-3.4790039999999998,-30.51758,-6.774902,81.8866,0.6701659999999999,-105.0293,12.59167,-0.4,-2.075,1
135099,0.17822269999999998,1.319336,0.17041019999999998,41.87012,-32.65381,-11.1084,82.94678,0.7415771,-112.533,-4.391667,-82.88333,40.96667,1
135379,0.02148438,0.7958984,0.07714844,-9.887695,-19.59229,1.525879,83.22144,1.164551,-115.8289,13.33333,0.775,-3.325,1
135610,0.2802734,1.375977,-0.34179689999999996,-12.20703,-7.263184,-0.06103516,79.61243,0.6481933999999999,-115.0269,-3.991667,-82.35,39.13334,1
135919,-0.01464844,0.8432617,0.03808594,4.150391,14.77051,-1.098633,82.6062,-1.142578,-109.8083,-4.216667,-81.48333,37.55833,1
136309,0.011230470000000001,1.074707,0.33349609999999996,15.80811,-43.396,-18.37158,84.28162,-0.1208496,-120.2014,-4.991667,-83.11667,45.10833,1
136619,0.15917969999999998,0.8085937999999999,0.05029297,-18.49365,46.99707,19.59229,83.93005,-0.1538086,-117.9218,11.80833,0.5416667,-3.366667,1
136869,0.2519531,1.433105,0.30175779999999996,8.605957,36.9873,3.4790039999999998,81.02417,0.2416992,-109.6326,17.20833,9.883333,-3.225,1
137140,-0.01074219,0.7973633,0.02539063,-3.723145,7.873535,-9.155273,83.30383,0.07141113,-109.5282,10.55,-1.208333,-2.266667,1
137509,0.15136719999999998,1.121582,0.3432617,0.9155272999999999,-7.995605,-7.69043,85.49561,1.043701,-115.9442,-3.15,-83.14167,41.2,1
137739,0.09326172,0.7578125,0.03271484,-25.87891,4.455566,1.708984,81.67786,0.302124,-115.5048,12.56667,-0.6083333,-1.8666669999999999,1
138019,0.03466797,1.444336,-0.234375,20.32471,11.2915,7.263184,79.03564,1.235962,-113.1647,22.53333,5.85,0.9500000000000001,1
138229,0.05078125,0.8310546999999999,0.1855469,10.98633,3.967285,-6.164551,81.78223,-0.736084,-108.1219,-2.141667,-81.04166,34.03333,1
138469,-0.109375,0.8056641,0.01074219,-0.4882813,-24.16992,-2.441406,79.91455,0.3131104,-109.8578,20.74167,-3.608333,1.3,1
138709,0.3847656,1.198242,0.4692383,14.09912,-28.01514,-25.08545,83.31482,1.257935,-114.9609,21.61667,3.758333,-1.3333329999999999,1
138929,0.20166019999999998,0.7163086,0.04199219,-17.33398,5.981445,-5.126953,80.37048,1.19751,-116.6364,14.725,0.5583332999999999,0.03333333,1
139239,0.04296875,1.036133,0.3144531,-14.16016,11.47461,13.42773,81.61194,1.565552,-109.259,-0.9500000000000001,-82.35,34.175,1
139549,0.02148438,0.7597655999999999,0.01855469,-10.80322,-31.86035,-0.8544921999999999,81.63391,1.966553,-112.8076,16.525,-2.475,2.258333,1
139849,-0.001953125,1.104492,0.3461914,-3.90625,-17.27295,-10.68115,83.41919,1.224976,-120.91,-3.725,-83.49167,40.73333,1
140149,0.1254883,0.7529296999999999,0.02050781,-4.943848,35.03418,-8.422852,79.05212,0.4174805,-117.3065,-3.208333,-82.1,36.09167,1
140419,-0.3110352,1.428711,0.2529297,-8.850098,16.78467,22.70508,83.06763,0.02197266,-109.6106,22.53333,4.616667,1.125,1
140659,-0.09277344,0.6611328,0.1030273,-24.59717,-22.88818,-3.90625,80.8374,-0.0769043,-111.4508,-3.575,-81.10833,33.9,1
140959,0.3154297,1.279785,0.4472656,2.990723,42.41943,-22.64404,82.71057,-0.7141113,-120.0696,21.95833,4.775,-1.283333,1
141269,0.1132813,0.6860352,-0.02148438,-18.00537,-5.187988,-4.333496,81.02966,0.06591797,-117.4823,15.825,0.5333333,-0.375,1
141579,-0.2514648,1.132813,0.30126949999999997,-11.59668,8.422852,17.94434,80.39795,1.246948,-112.4121,21.30833,4.666667,0.6833332999999999,1
141909,0.041015630000000004,0.6635742,0.009765625,-19.34814,-25.6958,1.403809,79.38721,0.7250977,-113.4888,14.58333,1.95,0.47500000000000003,1
142219,0.009765625,1.003906,0.3457031,22.15576,-14.46533,-22.82715,81.42517,0.9722900000000001,-123.4259,19.175,2.108333,-1.266667,1
142449,0.1279297,0.6567383,-0.02929688,-22.15576,13.24463,-5.065918,78.95874,0.8734130999999999,-122.3767,-4.475,-82.625,38.475,1
142699,0.11669919999999999,1.506348,0.1567383,12.3291,34.11865,16.90674,77.67334,0.9393311,-118.7677,15.05,8.108334,-2.5,1
142939,0.09619141,0.9594727,0.20214839999999998,7.385254,16.6626,-0.4882813,79.54651,-0.8679199,-116.9275,14.2,1.266667,0.24166669999999998,1
144129,0.07910156,0.8437500000000001,0.1357422,-2.746582,9.94873,0.8544921999999999,81.70532,-0.1043701,-113.28,12.475,0.8833333,-2.6,1
144339,-0.1025391,0.7612304999999999,-0.02441406,-7.93457,-35.15625,4.333496,79.12354,-0.2307129,-114.7137,21.53333,-3.983333,1.641667,1
144559,0.300293,1.41748,0.25,-9.82666,25.14648,12.3291,84.28711,0.6481933999999999,-123.0029,-4.575,-83.425,41.88334,1
144809,0.1289063,0.6938477,0.00390625,-23.07129,21.1792,1.464844,81.00769,-0.4229736,-118.916,14.13333,1.183333,-1.4,1
145079,0.3740234,1.232422,-0.2114258,8.117676,7.202148,-3.173828,78.80493,0.8569336,-115.3894,22.4,7.6,-2.85,1
145289,-0.02978516,0.8686522999999999,0.1181641,0.0,-15.86914,-5.310059,80.06836,-0.401001,-115.9827,11.5,0.1,-3.1,1
145569,-0.1518555,1.189453,-0.09033203000000001,21.42334,-66.71143000000001,0.3662109,76.43738,0.09887695,-122.7118,-3.9333329999999997,-81.90833,38.64167,1
145869,-0.006835938000000001,1.119629,0.17480469999999998,-22.58301,-1.89209,3.234863,79.28284,1.9885249999999999,-124.6619,12.26667,1.525,-2.566667,1
146109,0.1123047,0.9135742,0.20556639999999998,8.666992,23.4375,-3.112793,75.16296,1.8182369999999999,-124.3652,27.65,6.125,1.95,1
146389,0.1118164,1.045898,0.2583008,-3.4790039999999998,21.42334,-4.150391,78.55774,-0.4229736,-118.6139,-2.191667,-81.425,34.63334,1
146659,-0.02539063,0.6464844,-0.02148438,-10.31494,-21.97266,2.624512,77.0636,0.7580566,-118.5974,18.625,2.291667,2.258333,1
146909,-0.159668,1.172852,0.3217773,4.577637,-14.03809,-16.17432,80.40344,0.9887695,-129.1882,14.991670000000001,2.041667,-2.658333,1
147209,0.15917969999999998,0.7592772999999999,-0.01074219,-13.24463,19.59229,-8.483887,76.30554,-0.7305908,-126.6669,21.05,-0.5833332999999999,3.416667,1
147579,0.06689453000000001,0.859375,0.21337889999999998,2.441406,15.86914,-0.9765625,79.51355,-2.719116,-120.899,-4.708333,-81.59167,36.66667,1
147849,-0.1025391,0.7685546999999999,-0.03759766,-10.49805,-36.56006,-0.1831055,76.76697,-2.015991,-121.6846,20.2,-1.85,0.7416667,1
148089,0.4082031,1.515137,0.3432617,-18.18848,13.30566,11.16943,82.39197,-0.13732909999999998,-129.3091,-4.491667,-84.24167,43.55833,1
148329,0.09472656,0.703125,0.06689453000000001,-23.55957,24.71924,9.399414,78.46436,-1.8731689999999999,-124.7113,14.39167,2.75,-1.391667,1
148569,0.3427734,1.296387,-0.199707,2.929688,6.835938,0.7324219,76.75598,-0.6097412,-121.3879,21.05833,4.841667,1.983333,1
148789,-0.015136720000000001,0.7519530999999999,0.18603519999999998,1.220703,22.58301,-5.67627,79.43115,-1.082153,-116.6968,-3.241667,-81.91666,34.26667,1
149039,-0.09326172,0.855957,0.02832031,2.13623,-32.22656,2.441406,77.65686,-1.021729,-117.9108,22.01667,-2.325,-3.275,1
149309,0.3051758,1.233398,0.6650391,-8.544922,-0.4882813,-30.70068,81.90857,0.9393311,-122.547,22.7,4.733333,-1.4,1
149519,0.04345703,0.6567383,-0.008300781,-21.30127,35.82764,-1.953125,80.44189,-0.14282229999999999,-117.301,15.25833,1.883333,0.2083333,1
149799,0.03955078,1.205078,0.3193359,21.54541,5.310059,24.78027,80.79346,-0.5053711,-112.7307,-1.208333,-82.86667,32.58333,1
150099,-0.09375000000000001,0.7651367,0.1137695,-1.8310549999999999,1.159668,-11.23047,81.49658,-0.19226069999999998,-110.2368,12.925,0.7416667,-2.508333,1
150340,-0.1318359,1.166504,-0.1030273,23.98682,-45.59326,-7.324219,78.51379,-0.27465819999999996,-117.5977,10.725,7.1,2.158333,1
150619,0.1777344,0.7592772999999999,0.08984375,-20.26367,-5.859375,12.93945,81.76025,-0.08239746,-122.8381,-3.216667,-84.43333,37.96667,1
150889,0.1396484,0.8198242,0.08740234,11.90186,30.94482,0.24414059999999999,77.44263,-0.1208496,-120.6848,21.85,3.391667,2.975,1
151149,-0.006347656,1.063477,0.2026367,-3.78418,1.586914,-2.563477,79.49158,-3.048706,-114.5544,13.95833,2.016667,-2.316667,1
151449,0.26318359999999996,0.9814453,0.1123047,14.89258,-20.50781,-1.098633,74.76196,-2.878418,-121.7999,24.09167,0.4,7.458333,1
151819,0.1723633,0.7822266,0.05029297,-4.333496,61.88965,19.53125,81.60645,-0.7525634999999999,-112.4011,-0.75,-82.925,30.175,1
152079,-0.1884766,0.965332,0.01855469,9.033203,45.47119,8.300781,80.21667,0.4174805,-100.4535,23.23333,5.533333,3.708333,1
152329,0.08642578000000001,0.9575195,0.1621094,-5.981445,30.09033,-1.159668,83.10608,-1.8457029999999999,-93.33984,5.858333,-81.81667,22.1,1
152569,-0.1000977,0.7670897999999999,-0.07617188,-20.99609,-15.19775,7.385254,80.46936,-0.368042,-91.42822,18.91667,0.675,3.841667,1
152809,0.1518555,1.574707,0.15869139999999998,53.71094,-22.33887,-25.39063,80.80994,-0.14282229999999999,-95.73486,17.7,5.766667,1.216667,1
153019,0.109375,0.8022461,0.04443359,-6.652832,17.51709,5.92041,82.6062,1.038208,-92.99377,7.416667,-82.525,21.625,1
153269,0.02783203,1.056152,-0.006835938000000001,18.37158,36.49902,5.065918,80.34302,1.933594,-88.40149,27.49167,6.475,2.791667,1
153549,0.08300781,0.9687500000000001,0.2319336,-4.638672,5.859375,-0.9155272999999999,83.4082,-0.2636719,-82.61719,11.59167,-82.29166,18.28333,1
153829,0.48144529999999996,1.239258,0.04541016,5.615234,-23.62061,0.24414059999999999,79.56299,1.082153,-89.80225,8.691667,-81.20834,19.24167,1
154119,0.08154297,1.1479489999999999,0.35693359999999996,3.051758,0.0,-5.493164,84.12781,2.406006,-93.52112,13.625,2.233333,-1.9916669999999999,1
154369,0.11669919999999999,0.7392578,-0.07275391,7.69043,25.45166,-3.173828,80.01892,0.4229736,-89.54956,8.841666,-82.09167,20.24167,1
154639,0.02392578,1.319336,0.3129883,12.3291,7.263184,-6.225586,84.73206,-2.147827,-83.08411,9.775,-83.34167,21.15833,1
154939,-0.01171875,0.7084961,0.03515625,-23.37646,-4.516602,-7.93457,82.96326,-0.28564449999999997,-81.76025,14.60833,-0.44166669999999997,-1.983333,1
155189,-0.01220703,1.013672,0.3061523,47.54639,23.98682,-12.08496,84.17725,0.5218505999999999,-86.49536,21.50833,4.408333,-0.1,1
155459,0.06982422,0.7949219,-0.002929688,-23.19336,14.83154,2.746582,84.17725,2.04895,-84.9353,13.79167,-0.6166667,-0.65,1
155799,-0.1289063,1.187988,0.1289063,29.78516,41.07666,17.82227,85.53406,0.8349609,-79.12354,19.78333,4.233333,0.8666667,1
156069,-0.02539063,0.8359375,0.03613281,-27.46582,12.93945,-9.58252,84.66614,-0.9393311,-71.98242,14.15,-1.15,-1.85,1
156439,0.3520508,1.492188,0.2392578,11.1084,-8.117676,-1.708984,87.78625,0.3625488,-80.55725,13.91667,-85.94167,24.34167,1
156669,0.12695309999999999,0.7290038999999999,0.02587891,-23.01025,2.746582,3.601074,84.28711,-0.4998779,-80.73853,13.866670000000001,0.5,-1.191667,1
156949,0.03808594,1.256348,-0.1987305,1.8310549999999999,3.90625,10.49805,81.53503,-0.02197266,-77.57996,22.46667,7.233333,1.641667,1
157159,0.3076172,1.089355,0.3349609,16.54053,-1.8310549999999999,0.6713867,82.99622,-2.444458,-73.77869,15.28333,3.041667,-0.4166667,1
157370,-0.015625,0.7973633,-0.08544922,-13.79395,-25.57373,3.90625,80.86487,-0.9667969,-75.15747,16.60833,-82.95834,19.60833,1
157619,0.6464844,1.682617,0.3193359,62.74414,-38.69629,-13.06152,83.82019,-1.378784,-79.7937,22.73333,4.15,0.3916667,1
157869,0.08544922,0.7709961,0.044921880000000004,-19.16504,12.26807,7.141113,82.69409,-1.367798,-76.51428,13.90833,0.625,0.01666667,1
158169,-0.394043,1.463379,0.3535156,2.563477,32.34863,17.15088,83.36975,-1.73584,-69.85107,20.025,-85.79166,21.06667,1
158469,-0.04345703,0.7607421999999999,0.01171875,-19.65332,13.12256,-4.394531,82.24915,-2.625732,-64.20959,22.41667,-84.79166,19.2,1
158749,0.1621094,1.215332,-0.1030273,-11.53564,0.6103516,2.441406,79.76624,-3.427734,-67.28027,16.3,7.041667,3.1,1
158990,0.1235352,0.8496094,0.1259766,-6.164551,20.62988,8.056641,84.63318,-2.032471,-66.0498,22.45,-87.05833,21.71667,1
159289,0.011230470000000001,1.220215,-0.2802734,13.3667,17.7002,7.324219,81.19446,-2.103882,-58.94714,23.2,5.658333,0.225,1
159589,0.01611328,0.9316405999999999,0.1708984,-7.93457,36.07178,-1.342773,81.98547,-2.5927729999999998,-48.47168,31.83333,-86.20834,19.45833,1
160879,0.02734375,0.8413086,0.09423828000000001,-9.887695,-10.37598,-16.6626,85.00671,-3.081665,-43.56628,35.15833,-89.43333,22.6,1
161189,0.11669919999999999,0.8925780999999999,0.03564453,3.173828,-32.40967,-7.324219,81.40869,-2.537842,-48.19702,24.20833,-1.216667,5.475,1
161440,0.0009765625,1.1010739999999999,0.1679688,-10.31494,30.94482,1.098633,86.88538,-1.922607,-53.00354,15.08333,0.925,-2.025,1
161739,0.07958984,0.9213867,0.1289063,-3.662109,17.33398,-2.441406,81.74377,-2.6477049999999998,-45.30212,20.825,-3.283333,-0.1416667,1
161969,-0.39550779999999996,1.228516,0.08691406,-0.3662109,-12.81738,15.74707,81.63391,-3.449707,-40.08362,19.6,5.666667,0.2166667,1
162189,0.05859375,0.9257812999999999,0.1728516,1.159668,14.28223,-7.568359,81.6449,-3.795776,-41.11633,13.991670000000001,0.7166667,-1.841667,1
162399,0.1523438,1.213379,-0.09228516,6.164551,27.9541,-0.12207029999999999,78.32703,-3.35083,-41.05042,37.225,-86.54166,18.275,1
162679,0.2001953,1.261719,0.28613279999999996,2.319336,1.525879,-4.760742,84.38599,-3.411255,-45.7196,15.54167,2.416667,-1.666667,1
162879,0.1635742,0.7583008,-0.08007813,-11.04736,28.38135,-16.90674,79.44214,-3.630981,-44.09363,36.38334,-86.94167,18.425,1
163129,-0.3149414,1.285156,0.2822266,-12.63428,7.263184,10.31494,79.44214,-2.576294,-38.5675,19.49167,6.666667,2.958333,1
163409,0.02929688,0.7929687999999999,0.1801758,6.469727,36.31592,0.4882813,81.02417,-3.532104,-35.74402,13.88333,1.4,-1.375,1
163619,0.28662109999999996,1.302734,-0.13916019999999998,8.422852,2.929688,-0.06103516,78.66211,-3.66394,-37.650150000000004,25.10833,2.966667,7.433333,1
163899,0.04394531,0.8706054999999999,0.1494141,-6.225586,-1.89209,7.446289,83.172,-2.6971439999999998,-44.65942,37.125,-89.68333,21.29167,1
164199,0.056640630000000004,0.8237304999999999,0.024902340000000002,-15.56396,27.70996,-9.216309,78.77747,-2.949829,-42.44019,21.075,-4.75,2.416667,1
164439,0.16601559999999999,1.107422,0.3007813,20.87402,28.13721,8.117676,82.14478,-4.9823,-37.27661,15.3,2.641667,-0.75,1
164709,-0.06298828000000001,0.7163086,0.0078125,-22.64404,-29.05273,2.746582,78.94775,-3.696899,-35.62866,40.275,-88.76667,20.89167,1
164979,0.4916992,1.560059,0.5424804999999999,40.46631,-13.85498,-18.37158,81.85364,-4.020996,-39.50684,20.64167,4.966667,1.375,1
165229,0.06787109,0.8032227,0.04394531,-18.49365,6.286621,7.263184,81.90308,-2.977295,-39.11682,40.11666,-89.75,21.975,1
165539,-0.01806641,1.333496,0.041015630000000004,29.96826,52.36816,14.5874,79.76074,-2.993774,-34.22791,16.70833,7.483333,-2.175,1
165869,-0.01220703,0.8735352,0.07080078000000001,-11.77979,-10.37598,-8.666992,80.96375,-3.735352,-30.2948,13.625,-0.4583333,-3.208333,1
166179,0.36376949999999997,1.3354489999999999,0.2919922,36.01074,-43.82324,-14.09912,80.82642,-4.053955,-38.19946,19.61667,4.016667,2.208333,1
166419,0.07324219,0.8120117,0.07373047,-26.06201,-0.4882813,3.90625,82.73804,-2.955322,-40.70984,40.48333,-91.14167,22.09167,1
166659,0.03173828,0.9824219,0.1772461,-2.807617,14.83154,1.403809,78.35449,-2.373047,-38.24341,22.875,0.4666667,2.258333,1
166899,0.1835938,0.9907227,0.4794922,-14.70947,0.6713867,27.22168,79.28284,-4.32312,-33.57971,17.04167,2.741667,0.35000000000000003,1
167109,-0.1357422,0.6884766,-0.04736328,-14.83154,-23.07129,5.371094,78.06885,-4.361572,-30.81665,43.80833,-90.24167,21.075,1
167359,0.24414059999999999,1.442871,0.3374023,74.27979,-9.399414,-18.9209,80.41443,-3.823242,-36.90308,20.09167,6.05,1.9916669999999999,1
167629,0.02539063,0.9511719,0.1538086,-17.51709,-14.46533,0.42724609999999996,82.04041,-1.812744,-38.27087,12.61667,1.083333,-2.666667,1
167859,-0.08398438,1.132813,0.03466797,5.67627,-0.12207029999999999,6.103516,76.86584,-0.8129883,-39.776,21.95,1.75,3.4,1
168129,0.06445313,0.9130859,0.2607422,-9.033203,0.793457,1.098633,78.67859,-4.586792,-40.46814,40.95,-89.925,19.325,1
168429,0.009277344,0.6533203,0.0034179690000000003,-18.98193,-35.33936,-0.3051758,75.57495,-4.515381,-44.373780000000004,17.96667,1.1,1.225,1
168679,0.30126949999999997,1.061035,0.3759766,11.35254,12.87842,-8.117676,80.42542,-4.658203,-52.28394,15.991670000000001,3.166667,-1.266667,1
168949,0.1435547,0.7006836,-0.01757813,-8.239746,16.17432,-10.74219,76.88782,-5.20752,-46.86768,37.69167,-88.91666,16.80833,1
169219,-0.05761719,1.502441,0.1259766,10.0708,57.00684,4.150391,77.67334,-3.735352,-41.76453,14.34167,8.641666,-0.9916666999999999,1
169469,-0.052734380000000004,0.8540038999999999,0.06152344,-4.272461,13.5498,-5.981445,79.68933,-4.833984,-35.80444,12.14167,-1.083333,-1.741667,1
169779,0.03515625,1.371094,0.07519531,70.55664,-85.08301,-13.42773,79.36523,-5.674438,-41.45142,18.76667,3.375,3.116667,1
170109,0.1337891,0.8271484,0.0234375,-17.45605,31.79932,10.92529,83.75427,-4.663696,-43.06641,12.75833,-1.9916669999999999,-2.725,1
170419,0.2753906,1.47168,0.06884766,7.080078,54.01611,9.216309,80.354,-3.861694,-36.89209,15.60833,4.058333,-1.691667,1
170649,-0.01074219,0.8139647999999999,0.09521484000000001,-6.347656,15.86914,-18.79883,80.00244,-4.53186,-30.49805,45.125,-91.15833,21.59167,1
170899,0.1533203,0.9262695,0.11474609999999999,9.155273,-31.25,0.793457,76.51978,-4.438477,-33.15674,24.66667,-1.225,6.075,1
171139,-0.137207,1.148926,0.2519531,24.35303,-11.59668,-13.18359,82.41943,-3.696899,-37.60071,17.55833,2.266667,-0.9416667,1
171349,0.1235352,0.6689453,-0.03222656,-19.71436,-5.126953,-10.62012,78.86536,-4.564819,-40.40222,40.675,-90.48333,18.5,1
171589,0.5517578,1.5185549999999999,0.2832031,1.708984,55.54199,8.544922,77.83264,-3.197021,-38.45215,17.275,5.45,0.525,1
171869,0.1396484,1.054199,0.1879883,4.272461,10.19287,-14.09912,79.09607,-4.833984,-33.28308,14.80833,1.666667,-0.5750000000000001,1
172089,0.22558589999999998,0.9692383,0.2084961,1.953125,-24.10889,-6.225586,76.16821,-4.053955,-36.78223,24.825,0.5833332999999999,5.841667,1
172359,-0.02832031,1.068359,0.1289063,-16.6626,7.080078,5.371094,81.57349,-3.878174,-46.32935,38.44167,-90.85833,18.45833,1
172659,0.18212889999999998,0.746582,0.04296875,-15.50293,3.173828,-9.70459,76.43738,-4.641724,-45.19226,15.76667,1.4,1.466667,1
172909,-0.04785156,1.072754,0.296875,-3.845215,-4.272461,15.86914,78.12927,-3.911133,-40.39124,20.35,4.433333,0.8916666,1
173179,-0.002441406,0.7329102,0.0034179690000000003,-16.29639,0.6103516,0.8544921999999999,77.60193,-3.817749,-37.29309,42.575,-89.13333,17.9,1
173449,-0.18212889999999998,1.156738,-0.07861328000000001,10.80322,-70.3125,6.9580079999999995,77.01965,-5.646973,-41.31958,14.80833,6.933333,0.8,1
173689,0.1450195,0.7416992,0.09570313,-21.05713,-0.42724609999999996,5.615234,80.44739,-4.647217,-45.35156,38.24166,-90.175,17.85833,1
173999,0.42822269999999996,1.2260739999999999,0.06347656,5.310059,47.9126,4.211426,76.81641,-3.817749,-42.09961,16.825,4.316667,-1.133333,1
174339,-0.08984375,0.8544921999999999,0.1132813,-4.699707,-15.25879,-11.2915,78.05237,-4.158325,-34.07959,10.96667,0.17500000000000002,-2.175,1
174609,0.1079102,1.446777,0.02734375,37.23145,-43.51807,-10.0708,76.43188,-5.932617,-43.28613,19.875,9.466666,0.1666667,1
174979,0.1171875,0.6889647999999999,0.001953125,-15.07568,-0.1831055,-12.08496,76.64063,-4.564819,-43.99475,39.01667,-88.00833,16.10833,1
175249,0.3842773,1.275879,0.2197266,18.98193,56.03027,7.69043,75.88806,-3.043213,-40.06165,9.383333,6.366667,4.608333,1
175489,0.03710938,1.13916,0.16699219999999998,2.075195,8.972168,5.493164,78.71704,-5.042725,-34.77722,14.89167,2.3,-0.30000000000000004,1
175699,0.02929688,0.8696288999999999,0.1411133,1.89209,-53.58887,-6.713867,75.1355,-5.256958,-38.15002,40.64167,-88.225,16.60833,1
175939,-0.1074219,1.09375,0.40429689999999996,31.31104,-18.12744,-21.42334,80.88684,-4.306641,-45.70862,19.00833,2.383333,-1.116667,1
176179,0.08007813,0.7294921999999999,-0.011230470000000001,-21.3623,11.1084,-3.723145,78.92578,-4.42749,-43.78601,39.20833,-89.49167,17.79167,1
177420,0.1308594,0.7817383,0.04833984,-26.06201,-5.065918,-0.7324219,78.61816,-4.542847,-48.07068,13.96667,0.40833329999999995,-1.433333,1
177719,-0.3925781,1.3310549999999999,0.2958984,-5.92041,-0.4882813,17.8833,77.32178,-3.565063,-44.00574,18.7,6.75,1.941667,1
177989,-0.007324219000000001,0.8310546999999999,0.1567383,-7.629395,10.74219,-5.615234,78.12378,-4.42749,-44.71985,13.65833,0.6166667,-1.566667,1
178239,0.394043,1.155273,-0.05615234,15.80811,3.112793,-7.324219,75.03662,-4.21875,-50.36682,23.08333,3.891667,4.508333,1
178539,-0.02539063,0.8608397999999999,0.1962891,-20.08057,4.02832,7.385254,78.51929,-3.405762,-54.90417,13.48333,1.475,-2.358333,1
178809,0.1098633,1.1635739999999999,-0.06689453000000001,24.41406,-4.333496,13.3667,75.73975,-4.031982,-50.460210000000004,30.89167,-85.54166,16.00833,1
179079,-0.140625,1.467285,0.20947269999999998,16.17432,33.63037,-2.319336,80.15076,-6.119385,-43.08289,15.65833,3.0,0.05,1
179319,-0.1035156,0.7993163999999999,-0.01806641,-23.13232,-24.29199,2.563477,77.0636,-4.608765,-38.75977,36.08333,-86.275,19.275,1
179629,-0.09765625,1.143066,0.3198242,25.45166,-19.9585,-8.361816,79.98596,-4.086914,-44.52209,34.975,-87.29166,21.14167,1
179909,0.1489258,0.8330078,0.1328125,-8.239746,-11.90186,8.422852,80.0354,-3.966064,-46.67542,14.15,0.40833329999999995,-2.15,1
180149,0.41113279999999996,1.121094,-0.28613279999999996,0.3051758,23.13232,6.591797,78.27759,-3.240967,-41.17126,23.54167,4.658333,2.191667,1
180489,-0.03076172,0.9169921999999999,0.16650389999999998,-6.347656,22.58301,-5.67627,80.46387,-4.312134,-31.85486,14.6,1.008333,-2.158333,1
180699,-0.1044922,0.7685546999999999,-0.01806641,-22.82715,-39.30664,-3.723145,77.37671,-2.416992,-34.17297,17.78333,2.833333,-0.15833329999999998,1
180909,0.1035156,1.339844,0.01660156,37.10938,-20.26367,-6.286621,78.35999,-3.581543,-39.52881,17.925,5.675,3.675,1
181119,-0.09716797,1.088867,0.159668,2.929688,30.76172,1.8310549999999999,82.80945,-1.867676,-34.98047,15.38333,0.9833333999999999,-1.541667,1
181339,0.1040039,0.8588867,0.12402339999999999,-9.521484,10.55908,-8.300781,78.45337,-2.362061,-31.92078,42.65833,-88.00833,22.99167,1
181579,-0.2226563,1.027344,-0.03564453,30.0293,51.69678,-2.929688,79.29932,-2.285156,-26.63086,16.00833,8.308333,-1.65,1
181829,-0.01953125,0.9042969,0.09521484000000001,-7.873535,-4.333496,-13.79395,80.48035,-2.570801,-23.00537,12.35,-0.09166667,-3.108333,1
182129,0.09228516,0.9248046999999999,0.1137695,4.638672,-44.55566,-4.699707,76.78894,-2.548828,-28.13599,23.15,-1.266667,5.333333,1
182339,0.09228516,0.9248046999999999,0.1137695,4.638672,-44.55566,-4.699707,76.78894,-2.548828,-28.13599,18.59167,2.975,-1.716667,1
182560,0.12451169999999999,0.7817383,0.02050781,-22.94922,-17.57813,-8.605957,79.0686,-3.488159,-40.7428,41.44167,-88.1,19.15833,1
182839,-0.3144531,1.363281,0.15625,5.249023,11.35254,18.55469,78.60168,-2.345581,-34.07959,44.94167,-89.05,20.675,1
183129,-0.07080078000000001,0.8613280999999999,0.1791992,-2.258301,32.71484,0.793457,80.33203,-3.90564,-30.46509,14.84167,0.9416667,-1.758333,1
183369,0.4018555,1.270508,0.01025391,5.065918,-2.990723,-8.789063,76.95374,-4.740601,-38.3313,24.60833,4.416667,6.15,1
183649,0.08349609,0.9326171999999999,0.1308594,-11.2915,0.9765625,1.342773,81.62842,-2.768555,-43.53333,40.9,-90.3,19.40833,1
183969,0.1367188,1.013184,0.1538086,8.361816,29.11377,-7.507324,78.23914,-2.460938,-40.44067,42.96667,-89.20834,18.175,1
184259,0.09814453000000001,1.134766,0.2402344,8.605957,21.97266,7.8125,81.31531,-4.619751,-32.93152,16.30833,2.466667,-0.3333333,1
184639,0.1728516,0.9526367,0.1953125,-4.394531,-13.18359,2.01416,77.52502,-3.812256,-33.35449,45.025,-89.54166,19.225,1
184869,0.2641602,1.228027,0.32568359999999996,30.09033,3.173828,-12.93945,80.15625,-3.581543,-37.86438,19.06667,5.716667,0.1916667,1
185149,0.0703125,0.9902344,0.11083979999999999,-13.79395,-27.03857,3.356934,82.13928,-3.14209,-42.70386,15.38333,0.8916666,-1.783333,1
185359,0.1474609,0.8125,-0.05078125,-17.57813,9.216309,-4.333496,78.95325,-4.817505,-44.06067,16.70833,2.191667,0.9500000000000001,1
185579,-0.3671875,1.51416,0.48193359999999996,12.75635,10.43701,12.75635,81.41418,-4.086914,-37.3645,18.63333,5.716667,1.733333,1
185839,-0.015136720000000001,0.9833984,0.159668,-7.385254,46.08154,-4.089355,83.13904,-4.713135,-31.28357,15.60833,2.375,-2.241667,1
186059,0.1767578,0.9873046999999999,0.1000977,3.967285,-35.94971,10.55908,79.48059,-4.306641,-34.552,20.6,-2.075,7.491667,1
186369,0.1879883,0.9702147999999999,0.1308594,3.356934,50.04883,-8.544922,87.95654,-1.917114,-32.87109,47.10833,-94.25833,26.69167,1
186669,0.1118164,0.8696288999999999,-0.1254883,9.216309,125.9155,-14.03809,83.62793,0.43396,-6.344604,59.35,-92.45,35.975,1
186949,-0.004882813000000001,1.120117,0.22558589999999998,-27.22168,113.5254,10.68115,83.15552,3.158569,15.07874,17.925,0.3833333,-1.083333,1
187189,-0.2001953,0.9755859,0.001953125,-7.8125,109.2529,10.37598,82.7655,5.487671,49.70764,61.35833,-93.53333,64.8,1
187489,-0.18652339999999998,0.9780272999999999,-0.04052734,0.24414059999999999,29.23584,23.86475,82.93579,3.334351,72.5592,18.61667,0.65,0.3333333,1
187789,0.15087889999999998,1.129395,0.2304688,13.18359,-0.3662109,5.554199,84.88037,0.1043701,78.26111,46.4,-97.43333,75.69167,1
188089,0.1601563,0.8784179999999999,0.02734375,-17.45605,32.89795,23.68164,82.15027,-3.422241,82.33154,40.94167,-99.68333,73.85,1
188369,0.08789063,0.9384766,-0.002441406,27.46582,51.69678,3.967285,80.15625,-4.141846,95.04822,22.2,-0.24166669999999998,6.641667,1
188629,0.01953125,0.9584961,0.1884766,-3.723145,72.99805,2.441406,84.55627,-5.888672,119.8444,15.45833,2.766667,-0.025,1
188919,-0.11474609999999999,0.9335937999999999,-0.1035156,-17.94434,-19.16504,19.04297,81.18347,-5.119629,132.7588,17.15,-0.65,1.141667,1
189259,-0.04443359,1.367188,0.3398438,8.422852,7.080078,-17.02881,88.04443,-3.598022,129.2871,14.24167,1.558333,-1.341667,1
189469,0.06982422,0.8510742,0.06152344,-16.60156,49.01123,15.50293,85.63843,-4.570313,134.6759,13.98333,-1.9583329999999999,-1.058333,1
189679,0.18603519999999998,1.387695,0.028808590000000002,33.75244,86.48682,15.38086,84.36401,-4.53186,146.7938,6.458333,-94.48333,75.45,1
189919,0.09814453000000001,1.028809,0.1494141,-1.525879,14.28223,3.112793,86.16577,-6.740112,151.7761,14.00833,-0.6000000000000001,-1.066667,1
190189,-0.0625,0.7202147999999999,-0.05078125,-19.16504,-19.59229,-1.342773,82.18323,-6.245728,153.7756,18.33333,2.175,0.2333333,1
190409,-0.2880859,1.418945,0.24902339999999998,15.56396,-48.58398,-1.953125,87.23694,-4.328613,147.431,16.50833,2.0,-2.475,1
190689,0.18164059999999999,0.7314453,-0.1132813,-10.98633,34.97314,-9.155273,82.43042,-4.207764,145.6952,7.0,-94.06667,74.26667,1
190989,-0.17041019999999998,1.370117,0.04052734,44.06738,31.92139,17.63916,85.0177,-4.383545,151.5564,20.44167,5.883333,1.258333,1
191230,-0.07958984,0.793457,0.017089840000000002,-23.19336,-21.66748,-16.72363,85.62744,-5.740356,151.8365,12.325,-2.0,-3.733333,1
191509,0.33300779999999996,1.383789,0.4638672,13.3667,43.94531,-27.771,86.61072,-3.6859129999999998,141.0919,9.65,-92.43333,77.44167,1
191779,0.128418,0.8725586,0.03857422,-13.97705,-3.356934,4.089355,86.44592,-1.96106,141.2402,12.34167,0.375,-2.966667,1
192019,0.09912109000000001,1.077637,-0.1518555,1.220703,14.5874,-4.577637,84.51233,-1.378784,150.5072,8.875,-92.175,71.55,1
192319,-0.09033203000000001,0.840332,0.04052734,-3.601074,-6.469727,-10.0708,85.20996,-4.954834,153.512,7.991667,-90.61667,68.75,1
192599,0.09716797,0.7875977,-0.05126953,19.34814,-60.48584,-0.3662109,81.97998,-4.597778,146.8597,20.33333,-3.791667,8.95,1
192839,-0.03173828,1.07666,0.0,-14.52637,-8.117676,-6.591797,89.14307,-1.582031,140.4602,13.34167,0.6666667,-3.466667,1
194129,0.08886719,0.6977538999999999,0.056640630000000004,-14.5874,43.15186,3.112793,85.68787,-2.894897,134.989,11.71667,-3.716667,-0.35833329999999997,1
194499,0.004882813000000001,1.172363,0.2431641,-6.469727,-6.103516,4.516602,87.1051,-6.366577,137.9553,20.14167,-90.18333,78.89167,1
194729,0.0,0.7480469,0.0009765625,-27.52686,0.9155272999999999,-11.90186,85.05066,-4.921875,137.3126,12.025,-1.241667,-2.783333,1
195009,-0.11279299999999999,1.07373,-0.26269529999999996,11.96289,0.8544921999999999,-8.605957,82.6886,-4.086914,134.5221,20.60833,7.075,0.2,1
195219,0.24511719999999998,1.291992,0.2573242,-15.93018,9.216309,-1.281738,87.81372,-1.939087,128.5785,12.81667,1.7,-2.45,1
195429,0.1523438,0.7333984,-0.06103516,12.87842,66.71143000000001,-2.258301,82.82043,-2.318115,134.5825,17.075,-94.85,80.075,1
195669,0.2573242,1.237793,0.5639647999999999,-12.26807,35.40039,39.85596,84.89685,-5.888672,140.2679,17.64167,2.883333,-0.525,1
195919,-0.09082031,0.6865234,-0.10693359999999999,-27.40479,-7.202148,6.103516,82.1228,-5.9655759999999995,143.6682,8.208333,-93.575,75.95834,1
196169,0.3466797,1.7675779999999999,0.2592773,82.39746,-45.71533,-12.08496,86.14929,-6.053467,138.1476,20.80833,5.208333,1.166667,1
196439,0.022460940000000002,0.9394530999999999,0.04833984,-10.31494,-7.751465,-3.78418,89.48914,-3.378296,136.192,13.95833,-0.6166667,-2.708333,1
196649,0.022460940000000002,0.9394530999999999,0.04833984,-10.31494,-7.751465,-3.78418,89.48914,-3.378296,136.192,19.8,-3.625,4.2,1
196869,0.06835938,1.102051,0.3623047,1.6479489999999999,14.70947,22.70508,87.13257,-5.548096,145.3271,15.93333,1.816667,0.03333333,1
197139,-0.07275391,0.7319336,-0.04833984,-18.12744,-41.19873,-1.6479489999999999,83.45764,-5.092163,141.6577,8.983334,-94.19167,76.0,1
197409,1.156738,1.794922,0.9570312999999999,4.760742,-54.56543,-39.24561,88.2312,-5.223999,131.7041,22.73333,3.883333,-0.4666667,1
197650,0.1054688,0.6762695,-0.02685547,-17.7002,21.85059,1.159668,85.80872,-3.938599,133.0829,13.975,-94.55,79.06667,1
197959,-0.2871094,0.6240234,0.3789063,-4.394531,13.00049,39.85596,84.99573,-5.141602,144.8328,7.958333,-93.75833,75.725,1
198239,-0.026367190000000002,0.8261719,0.04150391,-2.319336,-13.73291,-18.37158,87.19299,-4.899902,144.245,8.258333,-2.033333,-2.775,1
198479,0.2988281,1.381836,-0.1835938,84.41162,-60.18066,-1.89209,87.77527,-5.251465,133.9563,23.98333,4.4,5.25,1
198819,0.1518555,0.7597655999999999,0.006835938000000001,-18.55469,16.8457,4.150391,88.83545,-3.7683109999999997,133.6212,10.95,-3.341667,-1.416667,1
199029,-0.2573242,1.088379,0.09570313,17.76123,18.85986,-4.638672,87.02271,-2.488403,138.4607,33.025,5.583333,3.9333329999999997,1
199239,-0.030273440000000002,1.327148,0.27099609999999996,13.48877,24.23096,14.95361,88.98376,-6.394043,141.4984,15.28333,2.175,-1.166667,1
199449,0.04052734,0.7377929999999999,0.046875,-18.98193,3.112793,-11.1084,87.80273,-6.322632,143.6572,11.65,-2.358333,-2.258333,1
199659,0.9428711,1.9604489999999999,0.6181641,68.72559,-72.87598,-17.76123,89.59351,-5.009766,134.8517,11.975,-93.25833,80.575,1
199899,0.04833984,0.8227538999999999,0.06103516,-12.81738,10.00977,7.019043,90.46143000000001,-2.504883,136.2689,12.46667,0.15833329999999998,-4.075,1
200249,0.1875,1.265625,-0.2773438,0.1831055,-13.48877,5.004883,87.39075,-2.779541,142.3389,21.65,9.533334,-7.716667,1
200459,0.03710938,1.25293,0.1645508,19.89746,3.417969,-7.93457,88.87939,-6.229248,144.245,13.71667,1.666667,0.4166667,1
200669,0.03710938,1.25293,0.1645508,19.89746,3.417969,-7.93457,88.87939,-6.229248,144.245,14.175,1.875,-1.241667,1
200889,-0.1992188,1.030762,0.24511719999999998,38.33008,-5.249023,-14.83154,90.41748,-2.686157,133.407,14.025,-93.525,82.15833,1
201159,0.1655273,0.6943359,-0.10498049999999999,-12.63428,25.02441,-6.896973,86.52283,-4.053955,135.1868,12.1,-94.85,78.78333,1
201469,-0.07958984,1.645996,0.2802734,47.30225,38.45215,27.64893,88.18726,-4.378052,141.5094,20.625,7.291667,0.1083333,1
201709,-0.0009765625,0.7290038999999999,0.041015630000000004,-22.70508,-8.666992,-10.0708,86.69861,-6.531372,144.7119,7.058333,-94.20834,74.89167,1
202009,0.6796875,1.494141,0.4160156,36.92627,17.8833,-19.04297,88.30261,-5.152588,134.7198,23.51667,5.425,-0.8833333,1
202319,0.07128906,0.7158203,-0.04589844,-27.22168,24.78027,6.774902,87.43469,-3.773804,137.0544,12.66667,-0.9500000000000001,-1.3,1
202599,-0.07861328000000001,1.29834,0.144043,14.5874,-2.990723,19.16504,89.07715,-5.443726,140.2515,21.15833,4.741667,0.3333333,1
202929,-0.01220703,0.6972655999999999,-0.06640625,-18.55469,-11.84082,-7.385254,85.45715,-5.526123,145.4645,14.78333,0.6583333,-3.141667,1
203269,0.6162109,1.224609,0.8300780999999999,-31.67725,2.380371,-52.91748,87.72034,-3.78479,133.6761,21.29167,3.466667,-1.825,1
203469,0.15869139999999998,0.7612304999999999,0.15917969999999998,-17.82227,8.544922,16.41846,88.07739,-3.14209,136.4227,12.866670000000001,-1.091667,-2.75,1
203689,0.128418,0.6899413999999999,-0.01660156,7.263184,42.84668,-11.1084,83.19397,-2.318115,141.5424,18.75833,-2.683333,0.6666667,1
203899,0.07763672,1.258789,0.2270508,6.591797,10.25391,8.605957,86.70959,-6.47644,145.2557,5.833333,-92.64167,75.85,1
204139,-0.09130859,0.6455078,-0.05419922,-27.09961,-27.70996,-13.85498,84.39148,-5.196533,145.0085,15.94167,-1.516667,0.8583333999999999,1
204389,-0.12695309999999999,1.222168,0.2041016,20.81299,-27.58789,-23.37646,89.13757,-2.219238,132.8247,17.925,1.65,-1.85,1
204699,0.21777339999999998,0.6103516,-0.1708984,-8.789063,16.41846,-12.20703,84.67163,-2.680664,131.8799,14.81667,-95.64167,77.08334,1
204999,0.40380859999999996,1.274414,0.4487305,1.89209,12.146,16.90674,87.78625,-6.300659,139.0814,9.333333,-93.49167,77.05833,1
205269,-0.03613281,0.7495117,0.056640630000000004,-26.97754,6.713867,-8.422852,86.8689,-6.020508,141.8005,12.175,-1.208333,-3.416667,1
205519,0.8002929999999999,1.870117,0.48193359999999996,50.90332,4.638672,-31.98242,88.62671,-4.383545,132.2864,13.75833,-93.54166,79.575,1
205819,0.001464844,0.7490234,-0.01757813,-25.93994,8.056641,2.563477,87.34131000000001,-2.39502,134.4287,12.19167,-1.433333,-1.508333,1
206119,-0.34863279999999996,1.263672,0.4008789,-39.79492,-17.8833,24.16992,88.18176,-3.702393,141.8719,10.275,-93.19167,76.49167,1
206419,-0.01074219,0.6762695,-0.001953125,-26.79443,-15.56396,-7.751465,86.39099,-4.932861,142.4487,9.666667,-93.45,74.525,1
206699,-0.1728516,1.086426,-0.2827148,25.63477,-63.35449,-5.493164,84.78149,-4.460449,134.5825,13.63333,2.691667,7.425,1
206949,0.1713867,0.7690429999999999,0.05859375,-20.1416,19.16504,15.86914,88.04993,-2.246704,130.9515,11.75,-1.208333,-2.583333,1
207249,0.7431641,1.328125,0.4301758,33.02002,27.34375,23.37646,87.78076,-2.548828,135.5768,19.84167,9.75,-1.466667,1
207589,-0.08349609,0.777832,0.006347656,-13.67188,7.995605,-11.53564,88.19824,-7.174072,141.46,12.25,-2.241667,-2.983333,1
207789,0.27050779999999996,0.9941405999999999,0.1723633,4.089355,-34.60693,1.7700200000000001,85.42419,-6.828003,136.9336,24.325,-2.116667,10.16667,1
208009,-0.07617188,1.046387,0.07373047,-15.93018,-6.713867,-7.69043,92.03796,-3.504639,131.2207,16.01667,-91.51667,81.15833,1
208249,0.12060549999999999,0.6083984,-0.12207029999999999,-21.91162,19.77539,-12.81738,86.44043,-3.339844,132.6434,15.13333,3.4,-0.1,1
208519,0.2104492,1.347656,0.03857422,47.66846,46.50879,20.62988,87.76428,-3.427734,137.439,18.6,7.6,-2.033333,1
208729,0.140625,1.062012,0.18164059999999999,-4.150391,17.57813,15.01465,90.04395,-7.119141,141.5753,14.45,0.6416666999999999,-1.8666669999999999,1
208949,0.38037109999999996,0.9765625,0.22216799999999998,-12.75635,-26.55029,-2.929688,87.55005,-5.487671,135.0,24.81667,0.8333332999999999,8.966666,1
209229,-0.04003906,0.953125,0.09863281,-13.42773,0.12207029999999999,-4.333496,92.69165,-3.081665,132.0392,16.20833,-91.38333,80.775,1
210479,-0.046875,0.871582,0.07958984,-20.93506,0.9765625,-7.080078,93.01025,-2.351074,125.5298,13.49167,-0.04166667,-2.35,1
210749,0.16699219999999998,0.6567383,-0.10839839999999999,-15.07568,11.04736,-9.765625,89.16504,-2.268677,127.348,18.375,1.108333,-0.15,1
210979,0.5576171999999999,1.062012,0.5820312999999999,-15.56396,47.11914,22.46094,91.80725,-4.855957,135.1703,17.89167,2.708333,-3.091667,1
211239,-0.007324219000000001,0.6835937999999999,-0.09179688,-30.15137,-51.26953,-2.624512,87.67639,-3.444214,132.616,17.51667,-93.61667,75.15,1
211509,0.31054689999999996,1.440918,-0.2246094,49.37744,-67.50488,-12.87842,89.59351,-3.251953,121.0254,22.95833,7.216667,1.391667,1
211779,0.1176758,0.7861328,0.07177734,-19.104,-11.35254,5.432129,89.57703,-2.026978,114.8566,13.1,-1.791667,-2.35,1
212059,0.3144531,1.647461,0.3530273,41.19873,12.93945,24.41406,89.70337,-2.636719,115.4718,26.325,-92.95834,78.58334,1
212339,0.109375,0.8813477,0.1621094,-9.399414,10.0708,-9.521484,89.15405,-5.015259,115.6641,14.125,1.25,-1.05,1
212579,0.26269529999999996,0.8862304999999999,0.008789063,18.49365,-30.39551,-1.098633,83.10608,-3.845215,109.3964,30.7,5.625,10.13333,1
212919,0.01464844,0.8945312999999999,0.1928711,-19.104,-0.1831055,2.258301,88.01697,-1.7028809999999999,105.672,13.075,0.8916666,-2.508333,1
213149,0.1757813,0.7402344,-0.06201172,-7.019043,-5.859375,-13.73291,83.86963,-1.653442,104.848,15.10833,0.17500000000000002,3.283333,1
213339,0.1757813,0.7402344,-0.06201172,-7.019043,-5.859375,-13.73291,83.86963,-1.653442,104.848,19.08333,9.741667,-0.1,1
213549,0.1333008,0.9682617,0.140625,-12.3291,11.41357,-3.173828,85.90759,-3.356323,104.0186,14.075,1.6,-1.116667,1
213759,0.2080078,0.7841796999999999,0.1655273,7.69043,-42.29736,-0.4882813,81.47461,-3.24646,101.0248,34.875,-94.175,75.44167,1
213999,0.0546875,1.088867,0.3432617,20.01953,-33.14209,-18.85986,86.52832,-1.8182369999999999,97.14661,15.63333,2.275,-1.391667,1
214249,0.1455078,0.7758788999999999,-0.07177734,-21.1792,0.0,-9.521484,83.19946,-1.642456,95.86121,38.975,-93.075,76.36667,1
214499,0.2675781,1.293945,0.03955078,37.29248,64.7583,21.24023,83.89709,-1.697388,99.81079,14.64167,9.033334,-1.625,1
214779,0.02978516,0.8842772999999999,0.05810547,-16.60156,-8.178711,-10.80322,85.44067,-5.234985,99.94812,35.46667,-92.95,76.94167,1
215079,0.05371094,1.379395,-0.18945309999999999,54.38232,-67.32178,-5.493164,81.86462,-4.790039,92.68616,18.325,6.3,3.883333,1
215379,0.20947269999999998,0.7973633,0.07373047,-14.28223,-3.234863,4.882813,85.05066,-3.9990229999999998,86.72607,42.50834,-92.90833,74.625,1
215689,0.230957,1.492188,0.36572269999999996,23.01025,47.11914,8.850098,83.66638,-2.460938,92.87292,18.63333,10.05833,-1.466667,1
216009,-0.01611328,0.8774413999999999,0.05615234,-7.446289,-12.146,-13.3667,86.23718,-6.289673,97.66296,13.29167,-1.091667,-3.125,1
216279,-0.05175781,1.118164,-0.19384769999999998,15.625,-43.5791,-4.699707,82.5238,-5.037231,88.64868,43.38334,-93.08334,75.13333,1
216569,0.1040039,1.134277,0.1884766,-4.272461,17.8833,-3.967285,87.91809,-2.834473,85.30884,14.075,0.9500000000000001,-1.25,1
216809,0.2084961,0.8007812999999999,-0.044921880000000004,-12.146,21.85059,-11.2915,83.72131,-2.367554,87.38525,21.61667,-4.533333,-1.183333,1
217119,-0.06005859,1.193359,0.2568359,28.50342,-8.239746,1.708984,85.27039,-5.646973,91.99402,15.55833,3.058333,-0.6083333,1
217479,0.3896484,1.263184,0.08642578000000001,15.19775,-23.62061,-8.117676,83.54553,-5.487671,87.22595,42.96667,-93.74167,76.55833,1
217759,0.32470699999999997,1.368164,0.2197266,6.530762,-8.056641,-3.540039,90.28015,-2.537842,82.2876,14.94167,2.141667,-2.3,1
217999,0.1552734,0.7705078,-0.11669919999999999,-14.95361,11.41357,-15.50293,84.0564,-2.636719,84.92981,45.65,-92.51667,77.28333,1
218239,-0.1542969,1.662598,0.36572269999999996,0.5493163999999999,9.338379,12.93945,86.01196,-1.713867,88.03345,17.69167,9.966666,-0.6000000000000001,1
218479,0.011230470000000001,0.8847655999999999,0.09667969,-5.126953,-12.93945,-11.96289,87.19849,-4.724121,87.16553,42.95,-92.46667,79.25833,1
218719,0.09082031,0.8046875,0.1103516,-5.92041,-57.80029,-2.075195,83.76526,-4.356079,81.7218,19.15,-5.116667,4.841667,1
219009,0.03466797,1.089355,0.1137695,-21.97266,11.41357,0.9155272999999999,87.96753,-2.312622,72.11426,51.15833,-91.43333,75.45,1
219319,0.1733398,0.8300780999999999,-0.04785156,-10.86426,8.728026999999999,-7.141113,80.16174,-3.290405,69.37317,18.775,-4.008333,1.133333,1
219609,-0.05859375,1.03418,0.34814449999999997,15.56396,-3.234863,-2.319336,81.38672,-4.498901,73.54797,49.23333,-93.39167,71.71667,1
219919,0.022460940000000002,0.7543945,-0.09277344,-3.051758,-12.93945,8.117676,82.30957,-4.65271,70.54871,15.49167,-1.1,3.025,1
220249,-0.3232422,1.350586,0.0546875,59.69238,-21.42334,6.103516,92.84546,-3.949585,63.81958,19.35,1.533333,-0.6583333,1
220519,0.17822269999999998,0.7924804999999999,-0.09960938,-31.67725,17.76123,-0.4882813,87.1875,-3.422241,56.74438,55.36666,-91.9,68.23333,1
220799,0.3706055,1.20752,-0.02587891,11.77979,26.85547,4.821777,86.92383,-3.449707,62.69897,24.05,4.366667,0.7166667,1
221029,-0.01025391,0.8422852,0.1030273,-2.319336,-1.342773,-18.61572,87.5885,-5.300903,67.28577,51.55,-92.60833,71.3,1
221349,-0.15820309999999999,1.202637,-0.2675781,-5.432129,-23.74268,3.112793,83.48511,-3.208008,63.21533,22.24167,10.425,-2.483333,1
221679,0.1025391,0.8510742,0.1137695,-12.63428,-18.24951,7.507324,86.74805,-2.285156,54.43176,13.175,0.9166667,-3.741667,1
221989,0.29492189999999996,1.267578,-0.2797852,-0.9765625,-26.18408,8.728026999999999,83.31482,-2.285156,53.63525,26.43333,7.558333,-1.108333,1
222229,-0.01367188,0.8002929999999999,0.1411133,-3.662109,9.033203,-4.821777,85.05615,-5.39978,55.54688,55.05833,-92.64167,63.89167,1
222469,-0.1542969,0.7187500000000001,-0.1201172,-21.05713,-49.25537,4.394531,81.13403,-4.54834,52.63,21.76667,-2.591667,0.725,1
222709,0.25537109999999996,1.1010739999999999,0.22216799999999998,-12.81738,0.24414059999999999,4.211426,87.9126,-3.312378,47.22473,57.88334,-91.26667,61.8,1
222949,0.03808594,0.824707,0.004394531,-14.28223,11.59668,0.12207029999999999,85.05615,-3.883667,48.63098,13.275,-1.241667,-0.875,1
223219,0.1435547,1.314453,-0.23632809999999999,-20.1416,-6.591797,7.568359,85.63843,-3.24646,51.47644,23.10833,3.225,0.6416666999999999,1
223439,-0.01953125,1.3095700000000001,0.22998049999999998,11.90186,30.15137,0.12207029999999999,87.39075,-7.185059,54.73938,15.475,1.7083329999999999,1.466667,1
223669,-0.004882813000000001,0.6577147999999999,-0.04541016,-5.67627,-67.32178,2.01416,84.6936,-5.72937,54.28345,17.88333,-4.033333,1.3333329999999999,1
223929,0.2895508,1.185059,0.2387695,-6.103516,30.94482,1.708984,91.89514,-3.746338,49.66919,56.55833,-90.75,66.73333,1
224199,0.10107419999999999,0.8217772999999999,0.00390625,-23.37646,29.11377,4.943848,88.78052,-4.092407,55.32715,13.925,-1.983333,-1.425,1
224479,-0.004882813000000001,1.203613,-0.21875000000000003,40.2832,38.20801,18.31055,87.72034,-4.53186,62.23206,16.26667,7.7,-0.5166666999999999,1
224749,-0.046875,0.8994141,0.006347656,-6.164551,21.42334,-13.85498,87.94556,-5.39978,70.5542,49.31667,-92.10833,74.025,1
225019,0.10888669999999999,0.8706054999999999,-0.06835938,18.43262,-33.08105,5.432129,86.13831,-5.526123,69.51599,16.35,-3.616667,4.608333,1
225259,0.2402344,1.121094,0.14697269999999998,3.662109,33.56934,-11.59668,96.45447,-3.081665,74.64111,48.05833,-88.10833,81.35833,1
225569,0.15869139999999998,0.9228516,-0.10839839999999999,-1.220703,87.34131000000001,-12.39014,91.99402,-3.55957,94.41101,19.575,0.875,-2.683333,1
225909,-0.060546880000000004,1.005371,0.05859375,-18.37158,72.99805,-9.216309,86.82495,-2.186279,115.6421,16.68333,1.325,-1.65,1
226179,-0.1923828,1.012207,0.02978516,4.943848,80.74951,9.82666,85.15503,0.3186035,140.5756,16.91667,0.03333333,-0.15833329999999998,1
227530,0.10644529999999999,0.9482421999999999,0.234375,4.455566,44.6167,4.516602,79.44214,-8.234253,-128.2104,13.80833,2.25,0.1083333,1
227729,-0.09326172,0.8134766,0.05419922,-12.20703,-13.5498,5.187988,78.40393,-7.185059,-124.5355,16.88333,0.6166667,2.65,1
227919,0.3911133,1.289551,-0.08007813,57.67822,-66.52832,-20.32471,82.15027,-8.503418,-133.1708,20.01667,8.916667,1.941667,1
228129,-0.01806641,1.002441,0.1489258,-15.80811,-19.40918,-3.112793,85.3363,-4.8614500000000005,-132.2809,12.79167,1.85,-2.508333,1
228339,-0.11474609999999999,0.8242187999999999,-0.1323242,23.01025,33.08105,7.69043,79.64539,-4.564819,-124.8102,-1.1,-81.78333,30.85833,1
228589,0.24902339999999998,1.002441,0.4614258,-1.953125,14.83154,6.469727,82.95227,-6.49292,-119.5093,14.6,2.766667,-1.483333,1
228869,-0.08837891,0.7675780999999999,0.07470703000000001,-8.605957,-1.708984,-11.16943,83.62793,-4.048462,-118.938,13.43333,-1.008333,-2.033333,1
229079,-0.08837891,0.7675780999999999,0.07470703000000001,-8.605957,-1.708984,-11.16943,83.62793,-4.048462,-118.938,25.25833,2.791667,7.125,1
229289,-0.09033203000000001,0.8564453,0.07519531,-25.45166,-17.21191,3.051758,85.58899,-1.340332,-126.5515,13.34167,0.5166666999999999,-3.3,1
229569,-0.3037109,1.293945,-0.2260742,47.79053,5.004883,3.051758,80.46936,-0.8953857,-125.3925,0.3833333,-84.06667,32.04167,1
229839,0.19042969999999998,1.093262,0.4399414,16.41846,20.93506,19.83643,81.69983,-5.344849,-123.6676,14.075,2.116667,0.5916667,1
230109,-0.21875000000000003,0.7329102,-0.08544922,-5.67627,-45.6543,-0.24414059999999999,81.18896,-3.312378,-122.8931,19.28333,-4.058333,-0.008333334000000001,1
230379,0.1523438,1.332031,0.3085938,-7.751465,-16.29639,-1.8310549999999999,87.40723,-1.153564,-130.0946,-1.033333,-85.91666,37.11666,1
230659,0.12207029999999999,0.7832030999999999,0.04638672,-27.34375,13.30566,11.59668,83.67737,-2.323608,-130.3088,13.725,-2.083333,-2.416667,1
230909,-0.8701171999999999,2.048828,0.5356445,-10.31494,46.63086,16.17432,84.57825,-3.235474,-120.1355,22.20833,8.325,4.283333,1
231209,-0.046875,0.6152344,-0.01171875,-28.56445,-9.58252,-8.666992,80.76599,-1.164551,-113.1152,14.05,0.425,-1.883333,1
231579,0.18603519999999998,1.112305,0.34082029999999996,5.7983400000000005,7.8125,4.516602,83.07861,-0.3405762,-128.3038,-0.08333334,-83.89167,31.70833,1
231839,0.06738281,0.7324219,-0.008789063,2.258301,24.10889,10.55908,83.96301,-1.384277,-126.0297,14.18333,0.1,-0.2,1
232089,0.3823242,1.006348,-0.028808590000000002,43.27393,68.29834,7.873535,83.95203,-0.7690429999999999,-116.3287,3.816667,-84.10833,27.3,1
232329,0.21337889999999998,1.14502,0.168457,-15.50293,40.1001,6.774902,86.47339,-4.44397,-105.8093,11.175,1.325,-3.291667,1
232569,-0.09423828000000001,0.7431641,-0.11474609999999999,-26.42822,-22.94922,-0.42724609999999996,81.66687,-2.5872800000000002,-103.1726,20.00833,-0.7916667,0.75,1
232789,0.04736328,1.3095700000000001,0.3276367,20.69092,-49.80469,-18.12744,89.17603,-1.224976,-116.1255,2.183333,-84.75,29.40833,1
233059,0.09082031,0.7558594,-0.04248047,-25.75684,15.31982,5.249023,85.84717,-1.318359,-116.8726,14.43333,-2.675,-3.466667,1
233309,-0.04638672,1.04834,-0.05761719,21.78955,31.12793,-1.464844,83.39722,-0.9063721,-110.451,28.75833,7.675,3.816667,1
233519,0.07470703000000001,0.8813477,0.1855469,-10.68115,23.31543,3.112793,86.47339,-4.169312,-98.73962,12.65,1.233333,-3.166667,1
233789,-0.10839839999999999,0.7675780999999999,-0.03417969,-23.62061,-21.91162,4.150391,81.91956,-2.796021,-98.90991,20.23333,0.09166667,2.133333,1
234009,0.31738279999999996,1.144531,0.3525391,9.094238,-4.333496,-14.16016,86.92932,-1.082153,-107.5726,5.541667,-83.88333,24.8,1
234289,0.1040039,0.7680663999999999,0.08300781,-17.02881,21.24023,6.835938,83.60596,-1.878662,-104.5294,13.38333,-0.5750000000000001,-1.633333,1
234519,0.1289063,1.500977,0.4257813,25.63477,44.73877,10.55908,82.00195,0.08789063,-97.24548,10.90833,-82.20834,19.44167,1
234829,-0.07763672,0.8740234,0.15136719999999998,-4.760742,-5.554199,-11.59668,84.55627,-1.356812,-92.12036,13.15,-0.6916667,-3.058333,1
235169,0.01855469,1.181152,-0.1723633,55.29785,-40.71045,-5.249023,83.09509,-1.878662,-100.3986,19.64167,4.933333,2.791667,1
235449,0.1157227,0.809082,0.10644529999999999,-22.03369,17.08984,20.1416,85.80322,-1.884155,-100.4205,13.05,-0.36666669999999996,-3.116667,1
235779,0.41113279999999996,1.19043,-0.02197266,17.76123,13.5498,-0.5493163999999999,83.26538,-1.538086,-96.4325,16.96667,5.008333,0.375,1
236089,-0.04931641,0.8530272999999999,0.11083979999999999,-5.737305,6.896973,-10.86426,85.12756,-3.328857,-90.09888,13.81667,0.4,-2.558333,1
236329,-0.07910156,1.042969,-0.2182617,15.19775,-27.771,2.13623,82.17773,-2.416992,-94.82849,11.24167,-83.46667,23.1,1
236569,0.1694336,1.171387,0.1855469,-6.225586,21.42334,2.075195,87.30286,-0.7745361,-97.229,13.71667,0.9583332999999999,-1.966667,1
236810,0.10107419999999999,0.7905272999999999,0.008789063,-18.98193,11.71875,2.075195,83.85315,-3.109131,-93.41675,15.175,0.25,-0.5750000000000001,1
237019,-0.440918,1.119141,0.4213867,-20.62988,35.94971,21.24023,83.31482,-2.900391,-86.05042,16.43333,-83.625,20.41667,1
237289,-0.07763672,0.8671875,0.1103516,8.666992,23.07129,-3.845215,85.0946,-3.861694,-80.95825,13.19167,0.48333329999999997,-2.0,1
237539,0.02832031,0.777832,-0.1210938,-10.68115,-44.25049,8.544922,82.3645,-3.510132,-82.00745,18.74167,-0.05,-1.283333,1
237759,0.2124023,1.178711,0.2905273,-8.728026999999999,-2.746582,0.9155272999999999,86.68213,-1.142578,-86.70959,14.81667,2.325,-2.033333,1
238029,0.12207029999999999,0.8105469,-0.07177734,-1.6479489999999999,33.26416,-10.13184,81.89209,-2.087402,-82.9303,19.80833,-83.88333,18.94167,1
238309,-0.1572266,1.333008,0.07861328000000001,14.77051,48.58398,17.7002,83.44116,-2.532349,-76.90979,19.86667,6.925,1.8,1
238579,-0.04150391,0.840332,0.08154297,-6.591797,11.1084,-10.68115,85.22095,-3.087158,-67.69775,14.3,-1.7083329999999999,-4.45,1
238849,0.00390625,1.248535,-0.06005859,39.24561,-25.26855,-3.90625,83.66089,-2.971802,-74.39941,23.45833,-85.925,20.63333,1
239119,-0.03662109,0.9428711,0.152832,-11.84082,0.7324219,1.159668,85.51758,-1.757813,-74.15222,14.03333,0.925,-0.5750000000000001,1
239369,0.03759766,0.9819336,0.09619141,9.70459,41.68701,-4.02832,82.21069,-1.768799,-68.90625,23.55,1.391667,0.7000000000000001,1
239670,0.1479492,0.9760742,0.1538086,-1.403809,32.2876,-1.6479489999999999,82.94678,-4.42749,-62.16064,14.725,0.775,0.325,1
240009,0.08544922,0.875,0.06005859,15.50293,-39.0625,-1.8310549999999999,81.19446,-3.290405,-61.37512,22.63333,-0.4166667,3.683333,1
240279,0.11474609999999999,1.130859,0.128418,4.760742,30.15137,5.981445,86.9458,-2.526855,-63.47351,15.49167,0.3916667,0.275,1
240649,0.06982422,1.155762,-0.16259769999999998,3.234863,12.39014,11.23047,87.07214,-1.466675,-55.06897,37.06667,-89.76667,24.16667,1
240919,0.05029297,1.142578,0.09277344,21.48438,-12.69531,-18.73779,88.36304,-4.921875,-49.69666,15.175,1.175,-0.65,1
241159,-0.04003906,0.7895508,-0.01855469,-17.8833,11.16943,-2.502441,86.16577,-3.521118,-47.85645,13.85,-1.358333,-0.7166667,1
241369,-0.001953125,1.152344,0.08935547,39.00146,-33.69141,0.8544921999999999,89.5166,-2.307129,-54.03625,37.75,-89.95834,23.95,1
241609,0.10693359999999999,0.8110352,0.05859375,-17.82227,-23.74268,9.643555,87.67639,-2.235718,-58.44177,14.54167,-0.125,-2.883333,1
241859,0.19726559999999999,1.1479489999999999,-0.121582,-2.197266,5.554199,8.483887,82.31506,-1.983032,-60.37537,21.74167,4.116667,0.7916667,1
242169,0.07275391,0.9648437999999999,0.1855469,3.173828,16.05225,-5.981445,83.80371,-4.383545,-57.57935,35.84167,-87.78333,19.58333,1
242479,0.25488279999999996,0.9711913999999999,-0.01464844,13.48877,-29.1748,-0.3051758,81.28235,-3.619995,-62.16064,33.225,-86.7,18.0,1
242739,-0.08203125,1.116211,0.4223633,15.07568,-7.8125,-20.08057,86.75354,-2.043457,-66.1322,17.73333,2.216667,-1.808333,1
243969,0.5502929999999999,1.339355,0.3500977,22.94922,-10.68115,-17.63916,85.60547,-3.696899,-58.40881,19.85833,3.975,-0.2583333,1
244209,0.06298828000000001,0.8549804999999999,-0.00390625,-17.02881,-7.507324,4.394531,83.66638,-3.493652,-60.93018,13.81667,-0.5916667,-1.508333,1
244479,0.09667969,1.057129,-0.02783203,23.62061,37.23145,11.41357,82.82043,-4.367065,-59.16138,35.125,-89.68333,21.05,1
244759,0.20605469999999998,0.8994141,0.1928711,-13.79395,24.90234,-5.737305,83.48511,-6.377563,-58.88123,14.25833,1.491667,-1.925,1
244999,0.3422852,1.07373,0.1030273,-3.417969,-24.78027,-8.361816,78.16223,-5.811768,-62.55615,32.51667,-87.00833,17.30833,1
245309,-0.015625,1.053711,0.13916019999999998,-12.45117,20.75195,5.92041,83.60596,-3.004761,-64.48425,15.2,1.133333,-1.741667,1
245639,-0.03466797,1.042969,-0.001953125,25.6958,28.74756,0.06103516,80.05737,-3.092651,-55.5304,22.725,1.516667,4.666667,1
245949,0.1474609,1.10498,0.1884766,-6.04248,18.9209,2.563477,83.36975,-6.240234,-48.82874,15.54167,0.875,-1.091667,1
246189,0.19433589999999998,0.9106445,0.09570313,4.516602,-40.34424,-3.417969,79.20593,-5.971069,-52.23999,38.2,-89.34167,19.225,1
246429,-0.2402344,1.084473,0.2915039,15.625,7.141113,-16.17432,84.56177,-3.7408449999999998,-54.9646,17.975,2.208333,-0.25,1
246669,0.1572266,0.8193359,0.06396484,-15.86914,15.99121,14.77051,83.66089,-4.180298,-52.84973,12.49167,-0.6916667,-2.591667,1
246879,0.41894529999999996,1.204102,-0.1831055,-6.652832,27.64893,2.563477,79.06311,-2.823486,-49.43298,42.40833,-89.925,20.4,1
247119,0.1694336,1.148438,0.3081055,12.146,18.00537,-2.075195,79.84863,-4.943848,-45.5603,14.50833,2.75,0.01666667,1
247399,-0.01953125,0.8256836,0.03955078,-13.3667,-8.605957,-7.507324,79.99146,-3.015747,-44.40674,14.33333,-0.5083333,-1.566667,1
247619,0.3271484,1.024902,0.5346679999999999,2.929688,-24.6582,-26.97754,80.57922,-2.658691,-55.50293,20.59167,3.65,-1.233333,1
247889,0.1020508,0.8056641,0.152832,-16.35742,-1.89209,13.5498,80.91431,-2.477417,-56.5686,13.4,1.383333,-3.7,1
248099,0.1103516,0.8525391,0.11083979999999999,-3.90625,21.30127,-3.417969,76.08032,-1.977539,-54.9646,20.05,-2.658333,0.6333333,1
248319,0.0390625,1.2416989999999999,0.2768555,5.92041,12.08496,-5.432129,79.10156,-6.273193,-52.66296,13.68333,2.608333,-0.1083333,1
248619,-0.01757813,0.8652344,0.01220703,-7.8125,-36.62109,4.516602,76.67908,-3.900146,-54.6405,38.825,-88.80833,17.24167,1
248929,0.11621089999999999,1.196289,0.253418,-13.12256,9.460449,0.4882813,81.49109,-2.598267,-59.21631,13.94167,2.191667,-2.091667,1
249219,0.11474609999999999,0.7939453,0.03076172,-5.737305,16.60156,-10.55908,76.03638,-4.180298,-54.525150000000004,39.83333,-88.85,17.33333,1
249529,0.1235352,1.160156,0.2885742,21.42334,2.258301,5.310059,78.77747,-6.904907,-51.712650000000004,38.70833,-91.01667,19.40833,1
249809,-0.04150391,0.809082,0.06738281,-14.09912,19.34814,-6.103516,78.87634,-5.064697,-47.80151,13.85833,-0.325,-2.458333,1
250049,0.5673828,1.536621,0.4179688,51.94092,-4.02832,-27.89307,79.45862,-4.306641,-52.38281,20.90833,5.025,1.233333,1
250389,0.08984375,0.8125,0.009765625,-13.06152,24.04785,9.70459,80.38696,-4.295654,-48.2959,14.48333,-0.6333333,-1.325,1
250609,-0.03173828,1.193359,-0.15478519999999998,8.239746,-0.6713867,4.272461,78.06885,-2.971802,-44.28589,24.18333,5.483333,2.758333,1
250809,0.30175779999999996,1.023438,0.34863279999999996,10.0708,-1.098633,9.643555,80.29907,-5.778809,-40.96802,15.65833,2.883333,-0.1416667,1
251029,0.01611328,0.8437500000000001,0.09326172,-18.18848,-13.67188,-17.08984,81.07361,-4.42749,-42.93457,12.84167,-1.741667,-3.141667,1
251239,0.3930664,1.402344,0.24072269999999998,48.9502,-31.73828,-28.56445,78.25012,-3.938599,-51.07544,41.55833,-90.41666,19.125,1
251489,-0.06738281,0.8535155999999999,0.1611328,-16.23535,-20.50781,-0.12207029999999999,80.01892,-2.301636,-52.60254,13.3,1.491667,-2.341667,1
251739,-0.09716797,1.254395,0.008300781,9.399414,3.90625,5.371094,75.97046,-2.208252,-53.8385,22.06667,5.433333,-0.2,1
252039,0.024902340000000002,0.7944336,0.1616211,10.0708,32.34863,-1.464844,79.26086,-5.603027,-49.422,41.61666,-90.5,18.75833,1
252349,0.3354492,1.268066,-0.10644529999999999,6.9580079999999995,-16.72363,-5.7983400000000005,77.75574,-5.767822,-54.25598,38.49166,-90.21667,17.45833,1
252609,0.12695309999999999,1.241211,0.2661133,2.01416,4.760742,-7.69043,82.49084,-3.526611,-56.72241,15.08333,2.1,-2.85,1
252859,0.1845703,0.7792969,-0.05615234,-11.1084,15.19775,-10.43701,77.15698,-3.691406,-54.9646,40.9,-89.025,16.775,1
253159,0.20507809999999999,1.137207,0.3276367,26.42822,-15.68604,-4.882813,79.18945,-6.674194,-51.64124,12.8,2.558333,-0.675,1
253459,-0.04003906,0.8041992,-0.05908203,-12.45117,-26.18408,2.319336,75.60791,-5.625,-53.95386,38.56667,-88.41666,15.95833,1
253759,0.17480469999999998,1.290039,0.2421875,-4.333496,27.22168,1.464844,80.4364,-2.790527,-56.78284,40.325,-90.475,18.9,1
254049,0.1796875,0.8696288999999999,0.10107419999999999,2.258301,22.64404,-13.24463,76.59119,-2.752075,-50.4657,43.31667,-89.19167,18.86667,1
254349,0.08740234,1.271973,0.2167969,12.93945,-7.385254,-9.643555,78.54675,-6.17981,-49.823,40.4,-90.3,19.18333,1
254689,0.08105469,0.9189453,0.04443359,0.6103516,-45.41016,2.746582,77.35474,-5.614014,-51.45996,21.61667,-1.791667,0.6416666999999999,1
254919,0.1367188,0.9848633,0.37158199999999997,16.8457,-28.13721,-24.35303,81.27136,-3.916626,-56.59058,19.31667,2.416667,-1.575,1
255139,0.07763672,0.7866211,0.07763672,-12.45117,20.44678,10.13184,80.1947,-3.208008,-54.245,13.43333,0.2666667,-2.508333,1
255349,0.3710938,1.297363,0.015625,4.394531,-15.93018,10.74219,77.34375,-3.658447,-52.89368,40.76667,-89.29166,18.225,1
255589,0.2241211,1.273438,0.19775389999999998,-1.037598,14.4043,-1.89209,78.89282,-7.042236,-51.92139,15.45833,1.875,-1.666667,1
255859,-0.1806641,0.7583008,-0.03417969,-26.18408,-4.882813,0.12207029999999999,75.65735,-4.976807,-47.43896,15.38333,0.55,2.558333,1
256079,-0.06152344,1.00293,0.3349609,20.38574,-35.27832,-18.55469,80.22217,-4.487915,-59.35913,18.65833,1.966667,-0.5083333,1
256359,0.2011719,0.8046875,-0.03271484,-32.53174,-4.333496,-0.7324219,78.86536,-4.866943,-64.45679,34.69167,-88.71667,15.65833,1
256659,0.43457029999999996,1.253418,0.08056641,-6.225586,4.455566,5.981445,76.2616,-3.883667,-61.99585,20.2,2.633333,1.316667,1
256899,-0.04248047,0.8798828,0.128418,-0.3051758,26.24512,-1.281738,77.85461,-6.454468,-58.07373,13.39167,1.216667,-2.058333,1
257180,-0.03320313,1.120117,-0.1689453,11.90186,1.281738,-10.86426,76.69556,-5.635986,-60.92468,35.16667,-88.86667,15.54167,1
257449,0.1328125,1.2260739999999999,0.2851563,8.300781,1.220703,-3.78418,82.21069,-3.861694,-65.90698,15.14167,2.608333,-1.158333,1
