Timestamp,AccX,AccY,AccZ,GyroX,GyroY,GyroZ,AngX,AngY,AngZ,MagX,MagY,MagZ,Tag
0,0.1650391,0.9301758,-0.3369141,2.868652,-0.4882813,-0.06103516,105.1282,-10.51941,-150.0677,15.88333,-6.025,0.09166667,1
410,0.18603519999999998,0.9482421999999999,-0.3369141,-0.9155272999999999,-0.6103516,0.9765625,105.1831,-10.50842,-150.0403,16.23333,-5.525,-0.09166667,1
699,0.2587891,0.9672852,-0.3920898,-0.24414059999999999,-0.9765625,-0.24414059999999999,105.26,-10.73364,-150.5621,16.23333,-5.583333,0.7333333,1
999,0.1733398,0.9379883,-0.33349609999999996,2.197266,0.9155272999999999,3.2958979999999998,105.7159,-10.9259,-150.3204,15.64167,-5.658333,0.1333333,1
1299,0.20507809999999999,0.9306641,-0.3432617,0.0,-0.8544921999999999,0.06103516,106.3806,-11.43677,-149.9799,53.13334,-87.65833,80.30833,1
1599,0.20947269999999998,0.9438477,-0.3466797,1.159668,0.1831055,-0.06103516,106.3531,-11.26648,-150.1392,53.25,-87.65833,80.46667,1
1899,0.1914063,0.9448242,-0.33300779999999996,-4.02832,0.9765625,0.6103516,105.7654,-11.47522,-149.7766,52.99166,-88.05,79.79166,1
2209,0.2163086,0.9746094,-0.3071289,-9.887695,1.7700200000000001,-1.7700200000000001,104.1998,-11.1676,-149.7821,53.19167,-88.96667,78.69167,1
2559,0.1655273,0.9868163999999999,-0.2963867,-17.08984,2.319336,-3.662109,100.2942,-10.79956,-148.7494,16.825,-4.083333,-5.158333,1
2809,0.2192383,1.075195,-0.05615234,-71.5332,7.568359,-0.7324219,86.99524,-10.03052,-147.3706,53.4,-95.3,65.4,1
3119,0.1689453,0.9125977,0.1386719,-1.525879,3.845215,-3.662109,80.37598,-9.569092,-146.7554,53.66667,-96.3,61.5,1
3419,0.06982422,0.9047852,0.1552734,-5.859375,7.324219,2.197266,77.03064,-8.525391,-142.7069,16.31667,2.308333,0.008333334000000001,1
3719,0.16259769999999998,0.9794921999999999,0.1289063,-2.990723,1.6479489999999999,2.258301,76.84937,-8.338623,-141.817,53.01667,-96.46667,61.775,1
4020,0.1762695,1.02002,0.1572266,2.868652,-1.708984,-1.708984,79.11255,-8.530884,-142.3993,17.85833,2.133333,0.7000000000000001,1
4379,0.1196289,0.9750977,0.1333008,4.516602,-0.9155272999999999,-1.098633,81.11206,-8.327637,-142.7399,16.65,1.85,1.175,1
4639,0.12695309999999999,0.9726562999999999,0.02685547,19.16504,-4.516602,0.6103516,85.8252,-8.492431999999999,-143.5693,16.925,-0.2083333,3.116667,1
4959,0.1474609,1.023926,-0.08837891,27.03857,-7.141113,-0.12207029999999999,93.59253,-8.080444,-145.3217,16.96667,-2.8083329999999997,3.891667,1
5269,0.11621089999999999,0.9726562999999999,-0.2675781,20.75195,-0.8544921999999999,2.197266,100.871,-8.12439,-145.838,16.8,-5.016667,2.375,1
5499,0.1376953,0.9594727,-0.3139648,16.29639,-3.356934,-0.5493163999999999,104.0076,-8.22876,-146.5027,15.866670000000001,-5.1,2.066667,1
5719,0.14697269999999998,0.9692383,-0.37304689999999996,7.324219,-2.868652,0.793457,106.7596,-8.085938,-147.0959,16.20833,-6.341667,1.1,1
5929,0.1381836,0.9394530999999999,-0.3945313,0.4882813,-3.051758,-1.525879,107.9791,-7.888184,-148.0737,55.575,-85.03333,81.80833,1
6170,0.13476559999999999,0.9248046999999999,-0.3862305,8.850098,-0.6103516,0.793457,109.0997,-7.745361,-148.3264,15.76667,-6.4,1.183333,1
6409,0.1381836,0.9428711,-0.46582029999999996,-3.234863,0.06103516,-2.01416,111.1047,-7.904663,-148.8153,55.85833,-83.45834,83.3,1
6659,0.13134769999999998,0.9135742,-0.39697269999999996,-5.126953,1.159668,0.06103516,110.2148,-7.728882,-148.7164,15.64167,-6.65,-0.4583333,1
6939,0.1318359,0.921875,-0.4052734,0.0,0.793457,-0.6713867,109.9731,-7.657471,-148.6615,56.0,-84.00833,82.7,1
7249,0.1357422,0.9150391,-0.3979492,3.967285,1.281738,0.12207029999999999,110.6598,-7.56958,-148.5352,15.75,-7.35,-0.03333333,1
7539,0.1367188,0.9238280999999999,-0.38818359999999996,-8.239746,0.0,0.4882813,109.6545,-7.58606,-148.7109,55.80833,-84.375,82.36667,1
7850,0.1289063,0.9345703,-0.3828125,3.051758,-1.037598,-0.3662109,109.4293,-7.597046,-148.3649,15.69167,-6.75,0.6166667,1
8149,0.13525389999999998,0.9194336,-0.40478519999999996,-0.6713867,-1.7700200000000001,0.3051758,110.2588,-7.432251,-148.623,56.03333,-83.81667,82.73333,1
9499,0.125,0.9296875,-0.41162109999999996,-1.7700200000000001,-0.9155272999999999,-0.6103516,111.3025,-6.795044,-149.0845,15.63333,-6.95,-0.1916667,1
9759,0.1259766,0.9160155999999999,-0.4140625,2.13623,1.220703,0.0,111.4728,-6.871948,-148.8867,55.93333,-83.23333,83.23333,1
10069,0.1230469,0.9091796999999999,-0.4208984,5.126953,0.9155272999999999,0.24414059999999999,112.2748,-6.674194,-149.1174,15.51667,-7.775,0.5833332999999999,1
10379,0.13916019999999998,0.9057617,-0.4301758,-3.173828,-0.3051758,-0.3662109,112.5439,-6.707153,-149.1998,15.54167,-7.2,-0.2833333,1
10679,0.1235352,0.9091796999999999,-0.4233398,-0.9155272999999999,-0.8544921999999999,0.24414059999999999,112.1539,-6.586304,-149.2657,15.525,-7.183333,-0.25,1
11019,0.140625,0.9101562999999999,-0.4785156,-0.12207029999999999,-6.04248,-0.12207029999999999,111.8958,-6.405029,-149.4965,15.53333,-6.941667,0.25,1
11219,0.11865229999999999,0.9111328,-0.4072266,2.929688,-0.06103516,1.281738,112.1429,-6.240234,-149.8425,15.35833,-7.241667,0.5166666999999999,1
11439,0.1196289,0.9047852,-0.44384769999999996,0.6713867,1.586914,2.13623,113.0438,-6.762085,-149.6777,55.875,-82.6,83.925,1
11679,0.1328125,0.8999022999999999,-0.4287109,-0.7324219,-0.4882813,0.6103516,113.1482,-7.1521,-149.837,15.625,-7.708333,-0.2083333,1
11949,0.1572266,0.9091796999999999,-0.4643555,-4.821777,-5.371094,1.342773,112.9999,-7.399292,-150.249,15.31667,-7.516667,0.48333329999999997,1
12169,0.15087889999999998,0.9072266,-0.44384769999999996,0.0,1.7700200000000001,0.9765625,112.8845,-7.322388,-150.0403,15.4,-7.333333,-0.1416667,1
12449,0.1328125,0.9052734,-0.4165039,-2.319336,0.12207029999999999,0.42724609999999996,112.8076,-7.426758,-149.9963,15.55,-7.45,0.008333334000000001,1
12659,0.1733398,0.9101562999999999,-0.44335939999999996,0.8544921999999999,-0.8544921999999999,-0.5493163999999999,112.8571,-7.624512,-150.0568,15.73333,-7.458333,-0.31666669999999997,1
12869,0.140625,0.902832,-0.4301758,0.4882813,-1.281738,-0.6103516,112.7692,-7.624512,-150.0403,15.575,-7.408333,-0.1333333,1
13179,0.137207,0.9096679999999999,-0.4130859,0.0,-0.12207029999999999,1.220703,112.5275,-7.800293,-150.0568,55.26667,-83.56667,83.54166,1
13489,0.1386719,0.9067383,-0.4057617,-3.417969,0.8544921999999999,0.06103516,112.1704,-7.998047,-150.0677,15.625,-7.066667,0.008333334000000001,1
13779,0.14306639999999998,0.9208984,-0.409668,-0.3662109,-0.5493163999999999,0.12207029999999999,111.9342,-8.014526,-150.0348,55.21667,-83.975,83.29166,1
14079,0.1494141,0.9194336,-0.4165039,-1.403809,0.4882813,-0.793457,111.9342,-8.052979,-150.0952,55.25,-83.94167,83.225,1
14359,0.1533203,0.9189453,-0.4130859,0.42724609999999996,0.793457,-0.9155272999999999,111.9617,-8.00354,-150.0513,15.75833,-7.175,-0.008333334000000001,1
14609,0.1499023,0.9189453,-0.4130859,-4.211426,0.0,-0.9155272999999999,111.6705,-7.932129,-149.8755,15.56667,-6.808333,-0.3333333,1
14909,0.1367188,0.9179687999999999,-0.4086914,4.882813,-1.159668,-2.197266,111.7694,-7.558594,-149.8206,15.59167,-7.158333,0.2583333,1
15279,0.12060549999999999,0.9213867,-0.4223633,-7.080078,-2.258301,0.12207029999999999,111.709,-7.190552,-149.9249,56.025,-83.70834,83.13333,1
15539,0.1103516,0.9243163999999999,-0.4082031,-4.02832,-0.3662109,-0.24414059999999999,111.1871,-6.992798,-149.9799,15.66667,-6.85,0.1083333,1
15789,0.1235352,0.9248046999999999,-0.4296875,-2.990723,1.220703,-0.06103516,111.2091,-6.685181,-150.0787,56.45,-83.83334,82.53333,1
16029,0.1210938,0.9150391,-0.37988279999999996,-0.793457,-0.8544921999999999,-0.42724609999999996,110.7532,-6.773071,-150.0403,15.8,-6.775,0.2,1
16279,0.11621089999999999,0.9291992,-0.4013672,0.24414059999999999,0.6103516,0.8544921999999999,111.1212,-6.80603,-150.0293,56.275,-83.85,82.55833,1
16509,0.1289063,0.9238280999999999,-0.394043,-0.24414059999999999,0.0,-0.06103516,111.0608,-6.871948,-150.0952,15.75,-6.841667,0.2166667,1
16799,0.12255859999999999,0.9252929999999999,-0.40283199999999997,0.0,0.3662109,0.12207029999999999,111.1487,-6.893921,-150.0238,15.69167,-6.716667,0.15,1
17009,0.12255859999999999,0.9252929999999999,-0.40283199999999997,0.0,0.3662109,0.12207029999999999,111.1487,-6.893921,-150.0238,15.825,-7.166667,-0.05833333,1
17260,0.1254883,0.9228516,-0.4052734,-0.7324219,-0.24414059999999999,-0.24414059999999999,111.3409,-6.871948,-150.0787,15.775,-6.908333,0.008333334000000001,1
17499,0.12207029999999999,0.9213867,-0.4008789,-0.4882813,-0.4882813,-0.5493163999999999,111.1871,-6.80603,-150.1282,56.35,-83.75833,82.6,1
17779,0.1210938,0.9228516,-0.4018555,-0.24414059999999999,-0.06103516,0.06103516,111.1871,-6.767578,-150.1501,15.73333,-6.858333,-0.008333334000000001,1
18049,0.12451169999999999,0.9238280999999999,-0.4052734,0.7324219,0.06103516,0.0,111.2366,-6.784058,-150.1666,15.725,-6.866667,0.05,1
18319,0.121582,0.9243163999999999,-0.4018555,0.0,-0.06103516,0.0,111.2805,-6.811523,-150.1556,56.43333,-83.775,82.55833,1
18589,0.1210938,0.9228516,-0.40478519999999996,0.42724609999999996,-0.3051758,0.12207029999999999,111.3245,-6.811523,-150.1666,15.775,-6.933333,0.1,1
18839,0.1201172,0.9194336,-0.41210939999999996,0.793457,-0.1831055,0.3051758,111.6211,-6.767578,-150.2106,15.60833,-6.966667,0.025,1
19149,0.1196289,0.9208984,-0.4140625,-0.3051758,0.0,0.0,111.6595,-6.641235,-150.304,15.63333,-6.866667,-0.03333333,1
19479,0.12255859999999999,0.9238280999999999,-0.40625000000000006,0.1831055,0.3662109,-0.1831055,111.7035,-6.49292,-150.4633,15.65833,-6.991667,0.1416667,1
19789,0.12207029999999999,0.921875,-0.41992189999999996,-2.258301,-0.24414059999999999,0.9155272999999999,111.8134,-6.218262,-150.65,15.741670000000001,-6.991667,-0.4666667,1
20029,0.1176758,0.9194336,-0.38037109999999996,-1.098633,-0.42724609999999996,0.0,110.7697,-6.28418,-150.7159,56.475,-83.96667,82.39167,1
20269,0.121582,0.9316405999999999,-0.4165039,0.42724609999999996,-0.8544921999999999,0.3662109,110.863,-6.311646,-150.7434,15.70833,-6.608333,0.06666667,1
20509,0.1289063,0.9267578,-0.3852539,3.601074,-0.3662109,0.06103516,111.2201,-6.49292,-150.7874,56.34167,-83.89167,82.44167,1
20749,0.1289063,0.9248046999999999,-0.4160156,-1.7700200000000001,0.24414059999999999,0.12207029999999999,111.0168,-6.558838,-150.7379,15.75,-6.533333,-0.2583333,1
21019,0.1210938,0.9160155999999999,-0.3847656,0.9155272999999999,-0.3662109,0.0,110.8356,-6.558838,-150.7544,15.76667,-6.833333,0.15833329999999998,1
21239,0.12402339999999999,0.9262695,-0.4140625,-0.06103516,0.0,-0.42724609999999996,111.1652,-6.509399,-150.7874,15.7,-6.841667,-0.1833333,1
21459,0.12451169999999999,0.9233397999999999,-0.40380859999999996,0.3662109,-0.1831055,0.0,111.0443,-6.531372,-150.8148,15.80833,-6.916667,0.03333333,1
21729,0.1201172,0.9223633,-0.3979492,0.24414059999999999,0.12207029999999999,0.0,111.1377,-6.619263,-150.7983,56.26667,-83.76667,82.58334,1
21999,0.1196289,0.9262695,-0.41064449999999997,0.9765625,0.0,-0.1831055,111.3354,-6.580811,-150.8313,15.83333,-7.083333,-0.05,1
22279,0.1235352,0.9208984,-0.39697269999999996,0.24414059999999999,-0.1831055,-0.06103516,111.297,-6.652222,-150.8203,15.76667,-7.033333,0.008333334000000001,1
22549,0.1196289,0.921875,-0.4008789,-0.1831055,-0.12207029999999999,-0.06103516,111.3519,-6.674194,-150.8368,56.35,-83.80833,82.65,1
22819,0.1230469,0.9243163999999999,-0.4082031,0.06103516,0.12207029999999999,0.0,111.3574,-6.690674,-150.8588,15.78333,-6.908333,0.05833333,1
23069,0.1210938,0.921875,-0.40625000000000006,0.1831055,-0.1831055,0.0,111.4343,-6.71814,-150.8643,15.741670000000001,-6.941667,0.0,1
23379,0.1210938,0.9233397999999999,-0.4091797,-0.06103516,-0.1831055,0.0,111.4673,-6.7236329999999995,-150.9192,15.741670000000001,-6.941667,-0.075,1
23709,0.1210938,0.9233397999999999,-0.4077148,-0.24414059999999999,-0.24414059999999999,-0.24414059999999999,111.3409,-6.71814,-150.9686,15.79167,-6.916667,-0.008333334000000001,1
24049,0.12207029999999999,0.9228516,-0.40625000000000006,0.24414059999999999,0.3662109,0.3662109,111.3574,-6.789551,-150.9082,15.71667,-6.916667,0.01666667,1
24249,0.12207029999999999,0.9243163999999999,-0.4067383,0.1831055,-0.12207029999999999,-0.1831055,111.3849,-6.767578,-150.9192,56.40833,-83.68333,82.53333,1
24499,0.1196289,0.9238280999999999,-0.4067383,0.0,0.0,-0.1831055,111.4069,-6.751099,-150.9302,15.76667,-6.925,0.05833333,1
24739,0.1201172,0.9223633,-0.4067383,0.12207029999999999,0.0,0.0,111.4783,-6.745605,-150.9357,56.45833,-83.58334,82.5,1
24979,0.1152344,0.9238280999999999,-0.4150391,-0.24414059999999999,0.3051758,0.06103516,111.4893,-6.745605,-150.9137,15.75,-6.908333,-0.15833329999999998,1
26359,0.12451169999999999,0.9194336,-0.41259769999999996,0.3662109,0.0,0.0,111.7694,-6.333618,-151.3147,56.39167,-83.40833,82.76667,1
26630,0.12207029999999999,0.9199219,-0.41162109999999996,-0.12207029999999999,0.1831055,0.0,111.7969,-6.273193,-151.3586,15.7,-7.1,-0.06666667,1
26879,0.1196289,0.9208984,-0.4140625,-0.42724609999999996,-0.1831055,0.0,111.7639,-6.322632,-151.3586,15.65,-7.05,-0.125,1
27089,0.12207029999999999,0.9194336,-0.41259769999999996,-0.5493163999999999,0.0,-0.12207029999999999,111.6211,-6.306152,-151.452,15.69167,-7.0,-0.05833333,1
27359,0.11865229999999999,0.921875,-0.4067383,-1.525879,-0.12207029999999999,0.1831055,111.5167,-6.366577,-151.4355,15.75833,-6.975,-0.125,1
27579,0.1201172,0.9223633,-0.4052734,-0.24414059999999999,0.06103516,-0.42724609999999996,111.3849,-6.410522,-151.4795,15.73333,-6.933333,-0.05,1
27919,0.12060549999999999,0.9223633,-0.4057617,0.4882813,0.0,0.06103516,111.3959,-6.416016,-151.496,15.80833,-6.975,0.01666667,1
28179,0.11865229999999999,0.9199219,-0.40332029999999996,-0.1831055,0.0,0.0,111.4453,-6.459961,-151.485,56.53333,-83.56667,82.55,1
28449,0.1196289,0.9223633,-0.4052734,-0.1831055,0.0,0.0,111.4178,-6.487427,-151.4905,15.75833,-6.9,-0.04166667,1
28699,0.1230469,0.9228516,-0.40625000000000006,0.12207029999999999,0.06103516,-0.06103516,111.4178,-6.509399,-151.5015,15.725,-6.966667,0.025,1
28949,0.11865229999999999,0.9248046999999999,-0.41064449999999997,0.12207029999999999,-0.1831055,-0.12207029999999999,111.5112,-6.503906,-151.5289,15.73333,-6.991667,-0.01666667,1
29199,0.1210938,0.9208984,-0.4082031,-0.06103516,0.06103516,0.0,111.5277,-6.542358,-151.5179,15.741670000000001,-6.933333,-0.025,1
29559,0.1196289,0.9233397999999999,-0.4072266,-0.12207029999999999,-0.06103516,0.0,111.5277,-6.569824,-151.5234,15.70833,-6.958333,0.05,1
29759,0.11865229999999999,0.9208984,-0.409668,0.06103516,0.0,0.0,111.5607,-6.591797,-151.5234,15.75,-6.975,0.0,1
29949,0.1201172,0.9223633,-0.4086914,-0.24414059999999999,0.06103516,0.0,111.5771,-6.608276,-151.5234,15.725,-6.991667,-0.01666667,1
30159,0.1201172,0.9233397999999999,-0.4091797,-0.1831055,-0.1831055,0.0,111.5607,-6.624756,-151.5289,15.73333,-6.941667,0.05,1
30370,0.12060549999999999,0.9213867,-0.4082031,0.1831055,-0.12207029999999999,0.0,111.5717,-6.646729,-151.5399,56.55833,-83.5,82.875,1
30619,0.1201172,0.9208984,-0.409668,-0.24414059999999999,-0.1831055,0.0,111.5497,-6.652222,-151.5509,15.73333,-6.966667,-0.025,1
30889,0.12060549999999999,0.921875,-0.4082031,-0.4882813,-0.1831055,0.0,111.5332,-6.657715,-151.5784,15.73333,-6.975,-0.1333333,1
31109,0.1196289,0.9223633,-0.40380859999999996,-1.098633,-0.3662109,-0.3662109,111.4288,-6.646729,-151.6223,15.78333,-6.908333,0.008333334000000001,1
31319,0.1191406,0.9223633,-0.40478519999999996,0.0,-0.1831055,-0.06103516,111.4178,-6.630249,-151.6498,15.75833,-6.908333,0.0,1
31599,0.1171875,0.9243163999999999,-0.4057617,0.3051758,0.0,0.0,111.4508,-6.646729,-151.6498,56.64167,-83.55,82.44167,1
31869,0.1181641,0.9233397999999999,-0.4023438,-0.1831055,0.0,0.0,111.4124,-6.657715,-151.6333,15.71667,-6.875,0.0,1
32139,0.11669919999999999,0.9238280999999999,-0.40429689999999996,-0.3051758,0.06103516,0.0,111.3794,-6.657715,-151.6388,15.775,-6.941667,-0.01666667,1
32419,0.11621089999999999,0.921875,-0.4052734,0.0,0.24414059999999999,0.0,111.3684,-6.6687009999999995,-151.6443,56.49166,-83.68333,82.25833,1
32679,0.11865229999999999,0.9252929999999999,-0.4052734,0.12207029999999999,0.0,0.0,111.3794,-6.685181,-151.6443,15.73333,-6.933333,-0.05,1
32939,0.11669919999999999,0.9238280999999999,-0.4052734,0.5493163999999999,0.12207029999999999,-0.12207029999999999,111.3684,-6.690674,-151.6443,15.76667,-6.9,0.01666667,1
33249,0.1201172,0.9213867,-0.4052734,0.06103516,0.24414059999999999,0.0,111.4508,-6.696167,-151.6443,15.75,-6.916667,0.0,1
33579,0.1230469,0.9248046999999999,-0.4077148,0.12207029999999999,0.12207029999999999,0.0,111.6266,-6.7236329999999995,-151.6388,15.76667,-7.083333,-0.075,1
33889,0.11865229999999999,0.9233397999999999,-0.40625000000000006,-0.3662109,-0.42724609999999996,-0.24414059999999999,111.4838,-6.707153,-151.6663,15.775,-6.958333,-0.1166667,1
34119,0.1191406,0.9233397999999999,-0.40478519999999996,-0.3662109,0.0,0.06103516,111.3739,-6.663208,-151.7432,56.55833,-83.64167,82.61667,1
34369,0.1191406,0.9228516,-0.409668,-0.5493163999999999,0.0,0.0,111.3794,-6.679688,-151.7157,15.79167,-6.883333,-0.4333333,1
34609,0.12060549999999999,0.9262695,-0.39501949999999997,0.8544921999999999,0.0,0.42724609999999996,110.9235,-6.838989,-151.6608,56.46667,-83.95834,82.34167,1
34849,0.1196289,0.9399413999999999,-0.4091797,1.281738,-0.5493163999999999,0.9155272999999999,111.3464,-6.882935,-151.6772,15.80833,-6.675,0.2583333,1
35149,0.13134769999999998,0.9370117,-0.4135742,1.342773,1.342773,0.06103516,111.8408,-6.833496,-151.7651,56.43333,-83.49167,82.875,1
35439,0.12207029999999999,0.9189453,-0.40478519999999996,0.0,0.0,0.0,111.6101,-6.877441,-151.6772,15.78333,-7.0,-0.01666667,1
35739,0.121582,0.9243163999999999,-0.40625000000000006,-0.9765625,-0.6103516,-0.3051758,111.4618,-6.795044,-151.7596,56.35,-83.575,82.74167,1
36049,0.121582,0.9233397999999999,-0.4082031,0.6713867,-0.3662109,-0.3662109,111.6156,-6.762085,-151.8365,15.83333,-7.066667,0.075,1
36379,0.12451169999999999,0.9238280999999999,-0.41064449999999997,-0.42724609999999996,-0.06103516,0.1831055,111.676,-6.70166,-151.8915,15.866670000000001,-7.1,-0.1333333,1
36649,0.1254883,0.9208984,-0.4077148,-0.1831055,0.1831055,0.0,111.5332,-6.734619,-151.875,56.45,-83.58334,82.61667,1
36919,0.12402339999999999,0.9213867,-0.4165039,0.3051758,-0.3662109,-0.3051758,111.6815,-6.657715,-151.9244,15.79167,-7.05,0.05833333,1
37159,0.121582,0.9194336,-0.4101563,-0.24414059999999999,-0.1831055,-0.1831055,111.6705,-6.416016,-152.1112,56.525,-83.54166,82.46667,1
37469,0.1235352,0.9204102,-0.4072266,-0.6713867,-1.403809,-0.6713867,111.5112,-6.295166,-152.2266,15.825,-6.975,0.15,1
37799,0.1201172,0.9199219,-0.41064449999999997,-0.3662109,0.6103516,0.42724609999999996,111.5167,-6.295166,-152.2101,15.79167,-6.966667,-0.09166667,1
38079,0.1079102,0.9262695,-0.4052734,1.8310549999999999,0.7324219,-0.12207029999999999,111.5332,-6.300659,-152.2321,15.775,-7.1,0.0,1
38409,0.1201172,0.921875,-0.4101563,-0.1831055,0.0,0.3662109,111.5717,-6.328125,-152.2705,15.70833,-7.033333,0.0,1
38719,0.1235352,0.9179687999999999,-0.409668,-0.12207029999999999,0.0,0.0,111.5662,-6.300659,-152.3419,15.7,-6.9,-0.04166667,1
38959,0.121582,0.9233397999999999,-0.4174805,0.3051758,0.0,-0.24414059999999999,111.5607,-6.273193,-152.3804,15.725,-6.983333,-0.06666667,1
39169,0.12695309999999999,0.9135742,-0.394043,1.159668,-1.159668,-0.24414059999999999,111.3684,-6.377563,-152.4078,56.41667,-83.68333,82.625,1
39409,0.12060549999999999,0.918457,-0.4174805,1.953125,-0.1831055,0.0,111.6595,-6.251221,-152.5232,15.65833,-7.033333,-0.1083333,1
39649,0.11865229999999999,0.9150391,-0.4130859,-0.5493163999999999,-0.06103516,0.06103516,111.6101,-6.168823,-152.6221,56.54167,-83.44167,82.64167,1
39899,0.1196289,0.9213867,-0.4169922,-1.037598,0.0,0.06103516,111.6376,-6.168823,-152.655,15.59167,-7.025,0.03333333,1
40179,0.1181641,0.9174804999999999,-0.41064449999999997,0.06103516,0.3662109,-0.3051758,111.5442,-6.113892,-152.7319,56.56667,-83.34167,82.84167,1
40489,0.12207029999999999,0.9155272999999999,-0.4077148,-0.42724609999999996,-0.8544921999999999,0.0,111.4178,-6.036987,-152.8418,15.78333,-6.975,-0.03333333,1
40779,0.121582,0.921875,-0.4101563,0.4882813,0.6713867,-0.3051758,111.4233,-6.075439,-152.8802,56.55833,-83.64167,82.59167,1
41119,0.121582,0.9213867,-0.40380859999999996,-0.12207029999999999,0.06103516,0.06103516,111.3135,-6.124878,-152.9077,15.73333,-7.05,0.05833333,1
41389,0.121582,0.921875,-0.4067383,-0.42724609999999996,0.1831055,0.3051758,111.4453,-6.262207,-152.8308,56.425,-83.56667,82.73333,1
41689,0.1181641,0.9155272999999999,-0.4101563,4.333496,-0.06103516,0.0,111.86280000000001,-6.317139,-152.8253,56.4,-83.35,82.85,1
41959,0.1040039,0.9199219,-0.4331055,3.112793,0.3051758,0.8544921999999999,112.5934,-5.982056,-153.0725,15.54167,-7.391667,-0.1166667,1
43309,0.12207029999999999,0.9228516,-0.4130859,-1.037598,0.0,0.0,111.5717,-5.185547,-153.9514,15.7,-7.041667,-0.01666667,1
43619,0.1210938,0.9233397999999999,-0.4140625,0.3051758,0.24414059999999999,0.1831055,111.5826,-5.19104,-154.0393,15.675,-7.033333,0.06666667,1
43919,0.1201172,0.9204102,-0.41113279999999996,-0.4882813,0.12207029999999999,-0.3662109,111.5991,-5.202026,-154.1272,15.725,-7.083333,0.2083333,1
44259,0.1152344,0.9208984,-0.4179688,-1.098633,0.0,0.06103516,111.731,-5.015259,-154.3689,15.55833,-7.016667,0.1333333,1
44460,0.11621089999999999,0.9062500000000001,-0.4130859,4.150391,-0.9155272999999999,0.0,111.9287,-4.828491,-154.5831,15.5,-7.35,0.8583333999999999,1
44679,0.1254883,0.9008788999999999,-0.4404297,-3.112793,0.4882813,0.0,112.5604,-4.641724,-155.0061,56.55833,-82.76667,83.31667,1
44949,0.11474609999999999,0.9106445,-0.4228516,-2.502441,0.0,-0.5493163999999999,111.9232,-4.487915,-155.1544,15.6,-7.241667,-0.04166667,1
45189,0.1113281,0.9238280999999999,-0.4160156,-0.7324219,0.06103516,-0.3051758,111.6486,-4.185791,-155.2753,15.65,-7.166667,-0.09166667,1
45399,0.11474609999999999,0.9174804999999999,-0.41845699999999997,-0.9155272999999999,-0.24414059999999999,0.4882813,111.3739,-3.911133,-155.5664,56.50834,-83.24167,83.06667,1
45649,0.1254883,0.921875,-0.41943359999999996,0.1831055,-0.06103516,-0.12207029999999999,111.3684,-3.988037,-155.6598,15.69167,-7.108333,0.03333333,1
45899,0.121582,0.9194336,-0.4150391,0.3051758,0.24414059999999999,0.12207029999999999,111.3574,-3.971558,-155.8026,15.64167,-7.05,-0.008333334000000001,1
46109,0.1235352,0.9165038999999999,-0.41162109999999996,-0.4882813,0.0,0.0,111.3025,-4.207764,-155.7971,15.65,-7.041667,-0.1166667,1
46409,0.1201172,0.9208984,-0.41259769999999996,0.6103516,0.12207029999999999,0.0,111.2915,-4.191284,-155.9015,15.68333,-7.108333,0.1,1
46629,0.1230469,0.918457,-0.4145508,0.12207029999999999,0.0,0.0,111.4838,-4.251709,-156.0553,56.34167,-83.375,82.975,1
46909,0.12255859999999999,0.9174804999999999,-0.4150391,-0.3662109,0.0,0.0,111.4453,-4.251709,-156.1652,15.65833,-7.091667,-0.01666667,1
47139,0.121582,0.9174804999999999,-0.4165039,0.24414059999999999,0.12207029999999999,0.0,111.4563,-4.191284,-156.3794,15.675,-7.108333,0.008333334000000001,1
47439,0.1201172,0.9155272999999999,-0.4145508,0.06103516,-0.1831055,0.0,111.4893,-4.317627,-156.4508,56.475,-83.38333,82.875,1
47719,0.1191406,0.9169921999999999,-0.4223633,0.1831055,0.0,-0.06103516,111.676,-4.213257,-156.676,56.40833,-83.21667,83.00833,1
48029,0.1176758,0.9179687999999999,-0.4169922,-0.3662109,0.3662109,0.0,111.5936,-4.092407,-156.8463,15.66667,-7.208333,0.008333334000000001,1
48279,0.12695309999999999,0.9179687999999999,-0.4179688,-1.342773,0.7324219,0.0,111.3135,-3.960571,-157.0331,15.75,-7.033333,-0.45,1
48579,0.1152344,0.9179687999999999,-0.39648439999999996,-0.8544921999999999,0.06103516,0.6103516,110.7422,-4.048462,-157.0386,15.64167,-6.933333,0.01666667,1
48819,0.1264648,0.9228516,-0.40478519999999996,1.525879,-1.159668,-0.5493163999999999,110.874,-4.141846,-157.1649,15.75833,-6.966667,0.05833333,1
49029,0.1181641,0.9204102,-0.40283199999999997,-0.24414059999999999,-0.24414059999999999,0.3051758,110.8575,-4.350586,-157.2034,56.675,-83.65833,82.64167,1
49269,0.1157227,0.9213867,-0.409668,0.6713867,-0.4882813,-0.3051758,110.9399,-4.411011,-157.2913,15.775,-6.9,0.08333334,1
49519,0.1201172,0.9233397999999999,-0.4082031,-0.4882813,0.3051758,0.3051758,111.0388,-4.564819,-157.3077,56.625,-83.525,82.55833,1
49759,0.125,0.9145508,-0.41259769999999996,-1.403809,0.7324219,1.098633,111.2476,-4.746094,-157.3737,15.825,-7.266667,0.1333333,1
50029,0.12060549999999999,0.9174804999999999,-0.40625000000000006,-2.01416,0.3662109,0.24414059999999999,111.1102,-4.932861,-157.2693,15.625,-6.608333,0.05,1
50259,0.121582,0.9199219,-0.4169922,3.4790039999999998,0.0,-0.24414059999999999,111.6101,-5.015259,-157.2748,56.48333,-83.3,82.73333,1
50529,0.1259766,0.9086913999999999,-0.4228516,1.708984,-1.525879,-0.9155272999999999,111.9067,-4.696655,-157.6538,56.69167,-83.06667,83.05,1
50829,0.11865229999999999,0.9135742,-0.4238281,0.42724609999999996,0.6713867,0.8544921999999999,111.9507,-4.416504,-157.8955,15.51667,-7.233333,-0.15833329999999998,1
51079,0.1152344,0.9165038999999999,-0.4174805,-0.8544921999999999,-0.5493163999999999,0.3662109,111.7035,-4.103394,-158.2196,15.60833,-7.158333,-0.15833329999999998,1
51349,0.1191406,0.9135742,-0.41259769999999996,-0.24414059999999999,0.24414059999999999,0.5493163999999999,111.3794,-3.850708,-158.5052,56.7,-83.325,82.89167,1
51619,0.1196289,0.9204102,-0.4135742,-0.3662109,-0.3662109,-0.24414059999999999,111.319,-3.839722,-158.6591,15.66667,-7.1,-0.008333334000000001,1
51899,0.1152344,0.9213867,-0.4135742,-0.24414059999999999,0.0,-0.12207029999999999,111.275,-3.729858,-158.8403,15.725,-7.175,-0.1083333,1
52209,0.1196289,0.9091796999999999,-0.4091797,1.220703,-0.6103516,-1.098633,111.2585,-3.554077,-159.0601,15.525,-7.05,0.5833332999999999,1
52499,0.1030273,0.9086913999999999,-0.4389648,7.019043,-1.159668,-1.037598,112.6813,-2.878418,-159.527,15.48333,-7.708333,0.9500000000000001,1
52779,0.11621089999999999,0.8930663999999999,-0.47363279999999996,5.92041,-0.42724609999999996,-0.3662109,114.7522,-2.993774,-159.7302,15.2,-8.325,0.6666667,1
53149,0.1025391,0.8862304999999999,-0.487793,-0.06103516,0.1831055,-0.24414059999999999,115.7355,-3.328857,-159.6533,57.41667,-80.325,85.18333,1
53389,0.10107419999999999,0.890625,-0.4853516,-0.3051758,0.6103516,0.42724609999999996,115.7355,-3.493652,-159.6588,57.26667,-80.35,85.025,1
53629,0.10498049999999999,0.8857421999999999,-0.4833984,-1.037598,0.12207029999999999,0.06103516,115.697,-3.735352,-159.6259,15.14167,-8.216666,-0.08333334,1
53879,0.1044922,0.8881836,-0.48193359999999996,-0.12207029999999999,0.0,-0.12207029999999999,115.6805,-3.883667,-159.7137,15.15833,-8.233334,0.0,1
54139,0.1074219,0.8798828,-0.4799805,0.7324219,-0.1831055,0.24414059999999999,115.7684,-3.988037,-159.7357,15.05833,-8.208333,0.49166669999999996,1
54359,0.1054688,0.8784179999999999,-0.4873047,5.92041,0.24414059999999999,0.1831055,116.5485,-4.130859,-159.6973,15.08333,-8.591666,0.5916667,1
54579,0.1289063,0.8950195,-0.5131836,-7.446289,2.01416,2.075195,116.6309,-4.932861,-159.6588,15.675,-8.458333,-2.966667,1
54880,0.1381836,0.9604492,-0.4052734,-67.0166,9.399414,-1.281738,105.6116,-5.630493,-158.8513,55.75,-87.58334,78.53333,1
55189,0.1342773,1.057129,0.1113281,-47.18018,7.873535,7.446289,82.08435,-6.514893,-155.6213,18.35,2.858333,1.208333,1
55489,0.1386719,1.006348,0.1552734,-18.00537,-2.13623,-1.525879,80.9967,-6.311646,-155.8411,16.025,2.641667,-1.225,1
55729,0.12207029999999999,0.8710937999999999,0.1230469,15.74707,-9.765625,1.7700200000000001,79.76074,-6.586304,-157.5385,14.325,1.9583329999999999,3.375,1
55999,0.12451169999999999,0.9741211,0.01171875,11.90186,-6.774902,6.347656,84.71558,-8.327637,-158.28,16.78333,0.425,0.225,1
56299,0.20214839999999998,0.9746094,0.04394531,-0.8544921999999999,-5.310059,1.342773,85.49561,-9.135132,-159.9664,17.075,0.5583332999999999,-1.141667,1
56579,0.1801758,1.021484,0.00390625,3.601074,-6.164551,3.234863,85.96802,-9.662476,-162.5977,17.14167,0.49166669999999996,0.1833333,1
56919,0.3457031,1.070801,-0.1323242,5.432129,23.74268,-3.2958979999999998,87.1875,-10.5249,-161.6309,16.38333,-0.8,-2.708333,1
57219,0.2167969,0.9155272999999999,-0.18261719999999998,-6.286621,56.88477,-5.615234,82.60071,-10.98083,-148.2166,16.45833,-1.883333,2.733333,1
57589,0.24511719999999998,1.045898,0.0625,44.43359,50.1709,-17.21191,84.44641,-8.486938,-124.8816,41.70833,-95.19167,75.01667,1
57849,-0.05712891,0.9628905999999999,-0.09228516,10.00977,45.34912,-1.098633,86.81396,-4.405518,-112.8296,16.96667,-2.4,-2.141667,1
58099,0.0034179690000000003,1.280762,0.06201172,6.469727,-28.25928,4.455566,87.66541,-6.932373,-112.2418,36.55,-93.56667,78.64167,1
58339,0.5649413999999999,1.048828,0.04541016,15.44189,15.80811,13.5498,89.79675,-6.004028,-114.67530000000001,17.05,-0.775,2.991667,1
58579,0.12060549999999999,0.8779296999999999,-0.07568359,-6.347656,40.71045,-0.8544921999999999,90.39551,-8.179321,-104.8041,17.26667,-3.45,2.941667,1
58789,0.06201172,0.7524413999999999,0.3505859,-11.23047,32.77588,29.96826,92.70813,-10.19531,-95.49316,25.81667,-90.86667,81.93333,1
60139,-0.15869139999999998,1.060547,-0.011230470000000001,23.01025,53.10059,-12.69531,95.31738,-9.860229,-73.60291,15.48333,-88.90833,81.20834,1
60399,-0.02783203,1.116211,-0.11425779999999999,-6.9580079999999995,-31.37207,23.98682,93.92761,-8.613281,-73.82263,16.33333,-90.575,80.05833,1
60689,0.1811523,0.7524413999999999,0.2875977,-21.24023,-4.638672,-34.05762,94.73511,-4.850464,-77.3877,16.23333,1.075,0.025,1
60959,0.1318359,0.921875,-0.1479492,-15.01465,1.89209,-1.342773,94.80103,-6.877441,-76.66809,17.375,-2.575,0.2583333,1
61209,0.2714844,0.7661133,0.2348633,-8.911133,30.33447,5.859375,95.09766,-10.50293,-75.33875,14.28333,-90.19167,82.0,1
61479,0.09960938,0.890625,-0.05029297,5.67627,-5.737305,-23.68164,95.81177,-8.426514,-70.80139,14.71667,-2.208333,-4.841667,1
61749,0.1567383,1.337402,0.07958984,-5.554199,-23.68164,-23.80371,95.69092,-7.053223,-75.20691,16.35833,2.141667,-0.2583333,1
62020,0.03515625,0.9135742,-0.1230469,-0.06103516,9.277344,10.68115,97.20154,-5.982056,-80.16174,19.225,-91.10833,85.20834,1
62299,0.006347656,1.154785,-0.2514648,0.42724609999999996,-0.24414059999999999,4.394531,96.05347,-4.87793,-79.65637,24.41667,2.15,0.9500000000000001,1
62549,-0.009765625,1.083496,-0.07275391,27.83203,19.28711,-15.25879,96.37207,-9.212036,-76.88782,16.225,-1.641667,0.05833333,1
62849,0.33349609999999996,1.160645,-0.140625,-4.089355,-20.01953,10.0708,95.28992,-7.987061,-80.27161,25.79167,4.575,-0.3916667,1
63219,0.09912109000000001,0.9926758,-0.11865229999999999,7.8125,16.17432,14.5874,96.39404,-6.459961,-86.88538,22.275,-91.525,85.99167,1
63489,0.1923828,1.105957,-0.2802734,13.3667,28.74756,0.6103516,95.80627,-5.130615,-83.99048,27.21667,2.266667,1.975,1
63729,-0.07568359,1.0,-0.06298828000000001,30.2124,28.74756,-16.60156,97.04224,-10.17334,-77.98645,15.65833,-89.30833,85.09167,1
63969,0.02441406,0.7568359,-0.22998049999999998,-19.71436,-0.06103516,26.18408,96.17432,-8.267212,-76.22314,17.19167,-8.058333,2.25,1
64239,-0.1479492,1.024902,-0.04833984,1.89209,-45.47119,5.249023,98.5199,-3.3728029999999998,-84.54529,23.71667,-90.04166,86.64167,1
64489,0.1254883,0.9018554999999999,-0.10839839999999999,-9.277344,12.57324,5.67627,98.41003,-6.998291,-84.33655,15.81667,-4.466667,1.058333,1
64739,0.2246094,0.9741211,-0.2675781,15.99121,14.77051,2.990723,98.66272,-7.481689,-81.82617,9.066667,4.366667,-2.566667,1
64949,0.2246094,0.9741211,-0.2675781,15.99121,14.77051,2.990723,98.66272,-7.481689,-81.82617,13.83333,-2.025,0.7083332999999999,1
65159,0.2592773,1.232422,-0.22119139999999998,6.225586,-32.65381,3.356934,98.23425,-10.3656,-74.42139,27.34167,6.141667,2.183333,1
65429,-0.3115234,1.13623,-0.01220703,12.69531,-30.70068,-9.765625,98.74512,-3.598022,-76.69006,17.1,-0.8,-0.9083334,1
65649,0.2724609,0.8413086,-0.1679688,-5.187988,9.033203,-15.99121,97.23999,-6.82251,-77.45911,17.20833,-90.225,83.81667,1
65920,-0.1733398,1.627441,0.1801758,18.73779,-11.1084,50.29297,100.2063,-8.942871,-75.31677,19.06667,-0.55,0.6583333,1
66279,-0.05859375,0.828125,-0.2080078,-0.1831055,-26.00098,25.45166,98.16284,-9.459229,-73.27881000000001,17.18333,-7.958333,2.458333,1
66599,-0.0703125,1.054688,-0.02001953,7.080078,-39.48975,7.751465,100.1019,-2.730103,-77.92053,14.80833,-0.8666667,1.416667,1
66869,0.34130859999999996,0.8310546999999999,-0.22119139999999998,3.112793,16.17432,-13.06152,99.29993,-6.047974,-78.74451,17.46667,-7.616667,3.125,1
67209,0.2509766,0.9570312999999999,-0.06787109,-1.6479489999999999,42.29736,-18.9209,100.459,-10.75012,-74.52576,14.1,-1.466667,-0.075,1
67519,-0.03613281,1.105957,-0.2753906,4.272461,-20.93506,19.77539,99.09668,-8.904419,-72.89429,19.71667,-6.725,-1.216667,1
67750,0.2104492,0.7729492,0.34375000000000006,-17.8833,7.019043,-24.6582,98.26721,-4.839478,-75.72876,18.10833,-0.1833333,-0.3416667,1
67969,0.1630859,0.8603516,-0.1640625,-18.00537,9.094238,5.310059,97.75085,-7.492676,-76.35498,15.65833,-89.85833,84.36667,1
68209,0.3754883,1.142578,-0.1494141,20.44678,6.530762,22.76611,98.10791,-6.998291,-73.64136,12.33333,2.983333,1.125,1
68449,-0.05566406,0.8940429999999999,-0.02050781,17.57813,22.03369,-15.01465,97.82227,-11.27747,-69.53796,13.94167,-1.525,-0.09166667,1
68659,0.27832029999999996,1.205566,-0.12402339999999999,4.394531,-26.79443,-4.150391,96.95435,-7.822266,-76.31104,15.18333,-90.39167,83.41666,1
68899,-0.06689453000000001,0.9130859,0.01611328,-9.277344,-36.56006,-13.12256,98.34961,-2.625732,-79.33777,15.61667,-0.7333333,1.666667,1
69189,0.24853519999999998,0.7631836,-0.1962891,-18.49365,4.577637,-10.25391,97.08069,-6.740112,-80.37598,18.46667,-90.86667,84.31667,1
69469,0.2324219,0.9804687999999999,0.01025391,-2.624512,27.58789,-6.652832,99.82178,-10.86548,-77.43164,13.75833,-87.78333,85.01667,1
69759,0.028808590000000002,0.9399413999999999,-0.1557617,-23.4375,6.469727,-8.483887,99.3219,-8.404541,-74.25659,17.5,-5.333333,2.516667,1
70009,0.01269531,0.7729492,0.1772461,9.82666,-7.751465,-23.86475,98.61877,-3.691406,-78.86536,20.83333,-91.5,84.16666,1
70289,0.1723633,0.8881836,-0.1708984,-31.18896,8.483887,-4.577637,97.86072,-6.970825,-78.32703,17.61667,-3.85,1.358333,1
70609,0.5839844,1.177246,0.001953125,9.460449,28.80859,-9.033203,98.87146,-10.79407,-76.47583,12.991670000000001,-89.3,83.0,1
70879,-0.09277344,0.7338867,-0.2832031,-10.25391,-27.09961,17.94434,97.4762,-7.212524,-74.31152,15.06667,-91.01667,82.175,1
71189,-0.1020508,0.7329102,0.3300781,-1.6479489999999999,-8.789063,-26.12305,99.28894,-2.856445,-75.65735,15.00833,1.308333,0.5583332999999999,1
71439,0.06396484,0.9018554999999999,-0.1879883,-16.8457,-4.333496,6.713867,98.27271,-7.020264,-77.32727,15.825,-3.05,0.6083333,1
71709,0.3779297,1.1479489999999999,0.06933594,30.51758,19.89746,17.27295,100.1184,-11.63452,-73.97644,16.15,-1.166667,-0.3833333,1
72079,-0.03417969,0.8564453,-0.19384769999999998,-29.90723,5.981445,13.48877,98.5968,-8.4375,-68.302,17.66667,-7.325,2.733333,1
72279,0.0,1.088867,-0.03417969,-0.9765625,-59.87549,10.37598,100.9918,-3.389282,-73.97095,17.54167,-90.39167,84.16666,1
72559,0.17041019999999998,0.8764647999999999,-0.18652339999999998,-26.7334,-5.554199,6.652832,99.38232,-6.212769,-79.74976,14.80833,-3.116667,1.366667,1
72799,0.359375,1.33252,-0.06787109,51.33057,6.347656,18.43262,100.9534,-5.141602,-78.51929,14.325,2.583333,6.383333,1
73019,0.08691406,0.8847655999999999,-0.1196289,-8.911133,0.6103516,-18.31055,100.2228,-7.728882,-72.45483,13.55833,-3.841667,-4.225,1
73289,0.23291019999999998,1.23291,-0.2973633,7.8125,-7.019043,-0.1831055,98.80005,-7.075195,-73.74573,24.86667,7.641667,3.608333,1
73509,0.22851559999999999,0.9243163999999999,-0.03076172,-3.540039,-3.051758,33.44727,99.77234,-3.966064,-82.02393,14.991670000000001,-2.383333,-2.433333,1
73809,0.2612305,0.9277344,-0.3764648,30.09033,0.06103516,12.81738,100.2997,-7.531128,-79.57397,17.33333,-88.975,84.525,1
74109,0.09472656,0.8315429999999999,-0.06347656,-7.69043,3.90625,-24.6582,99.76685,-10.75012,-71.82861,12.56667,-88.25833,82.45,1
74389,0.253418,1.111816,-0.2026367,25.6958,-51.51367,19.65332,98.90442,-9.865723,-74.50928,23.61667,-0.6333333,0.1666667,1
74629,0.3305664,0.9560546999999999,-0.06494141,0.4882813,-34.36279,21.85059,101.0413,-4.894409,-76.16272,17.975,-88.64167,84.48333,1
74929,0.2324219,1.173828,-0.265625,9.765625,8.544922,-2.685547,100.5908,-6.207275,-78.62915,24.71667,1.933333,2.175,1
75229,0.01953125,0.9614258,-0.10888669999999999,5.615234,12.08496,-9.094238,100.2448,-10.21729,-75.97595,15.15,-87.95834,82.98333,1
75529,0.18261719999999998,1.037598,-0.34912109999999996,4.943848,-2.868652,-4.516602,99.47571,-8.909912,-79.50256,17.15833,-88.93333,82.875,1
75819,0.2475586,0.9082030999999999,-0.04638672,5.92041,18.37158,21.66748,99.58557,-5.405273,-82.45239,20.18333,-89.14167,83.59167,1
77249,0.2392578,0.8876953,-0.184082,5.371094,15.01465,-18.73779,96.47095,-6.921387,-76.38245,19.7,-3.683333,3.9333329999999997,1
77589,0.07568359,0.8930663999999999,0.01416016,15.31982,32.4707,-2.563477,99.10217,-11.32141,-72.96021,14.58333,-1.3333329999999999,1.675,1
77819,0.06103516,0.8930663999999999,-0.1567383,-22.09473,-2.685547,0.5493163999999999,99.84375,-7.597046,-71.87256000000001,20.51667,-3.816667,2.566667,1
78009,0.3276367,1.453613,0.1728516,15.56396,-16.90674,-32.77588,101.4587,-6.740112,-74.43237,19.68333,0.525,2.575,1
78219,0.24121089999999998,0.8813477,-0.024902340000000002,-10.0708,-12.75635,24.71924,100.3546,-4.844971,-77.89307,15.90833,-3.65,-0.4666667,1
78429,0.2602539,0.8164062999999999,-0.184082,-18.00537,-18.37158,-16.35742,99.09668,-6.405029,-80.68909,17.525,-6.008333,1.358333,1
78639,0.3535156,1.170898,-0.06982422,-9.460449,28.86963,-8.117676,101.0358,-9.448242,-80.88684,17.85833,-87.56667,83.925,1
78889,0.05419922,0.921875,-0.1396484,-17.45605,-13.24463,-7.385254,101.0742,-7.267456,-78.39294,12.33333,-3.316667,-1.358333,1
79139,0.7954102,1.228516,0.3056641,7.995605,-39.97803,-34.36279,100.9314,-4.103394,-86.11633,19.20833,-0.9583332999999999,-0.2916667,1
79439,0.1079102,0.8608397999999999,-0.08496094,-4.577637,28.56445,25.63477,100.6403,-4.894409,-87.20398,14.26667,-2.783333,-2.858333,1
79659,0.2695313,0.9189453,-0.3662109,23.01025,15.19775,6.530762,100.7721,-6.410522,-82.97424,21.11667,-88.15,83.81667,1
79969,0.1171875,0.7807617,-0.06738281,-15.38086,-31.18896,-37.53662,100.4755,-8.102417,-80.77698,13.94167,-3.308333,-4.008333,1
80259,0.08642578000000001,1.350586,0.0034179690000000003,1.525879,-38.39111,-13.18359,101.1401,-6.432495,-85.63293,24.39167,-88.65833,84.14167,1
80569,0.022460940000000002,0.9770508,-0.21386719999999998,-1.098633,5.859375,18.55469,99.71741,-6.92688,-88.72559,14.25,-3.325,-3.225,1
80859,0.2666016,1.552246,0.5385742,10.49805,-29.29688,25.81787,99.89868,-5.817261,-92.71912,26.79167,-89.725,83.15,1
81169,0.1420898,0.9150391,-0.1113281,0.8544921999999999,-34.36279,-16.11328,99.81079,-4.740601,-97.68494,31.20833,-89.89167,83.60833,1
81449,0.2163086,1.072266,-0.2714844,8.911133,-6.164551,6.103516,98.71765,-5.509644,-100.0745,25.03333,2.108333,2.091667,1
81689,0.2573242,0.8662109,-0.02685547,-1.953125,-17.63916,22.58301,99.12964,-2.5872800000000002,-106.7212,17.10833,-2.533333,0.2166667,1
82029,0.1987305,1.111816,-0.22558589999999998,6.04248,11.47461,-3.662109,98.54736,-5.141602,-106.5674,21.88333,-2.941667,3.091667,1
82239,0.2514648,0.8603516,0.18652339999999998,-13.91602,22.15576,10.0708,98.7616,-8.761597,-105.3699,14.866670000000001,-0.7333333,2.133333,1
82449,0.1381836,0.8623046999999999,-0.08105469,4.821777,-16.17432,-25.87891,99.13513,-6.817017,-102.4475,16.11667,-3.383333,-2.391667,1
82659,-0.04541016,0.9916992,-0.1459961,-4.638672,-20.01953,6.652832,97.6355,-6.784058,-103.5736,26.49167,-0.675,2.116667,1
82859,0.07324219,1.018066,0.12402339999999999,-4.699707,-25.87891,-7.568359,99.19556,-3.136597,-106.3586,13.96667,-0.3333333,1.358333,1
83059,0.11621089999999999,0.9384766,-0.08056641,1.89209,5.493164,17.8833,98.3551,-5.663452,-107.9626,14.91667,-2.541667,-2.7,1
83289,0.3374023,1.254395,-0.17871089999999998,31.37207,11.04736,15.99121,98.49792,-5.366821,-108.111,35.625,-90.525,82.475,1
83560,0.07519531,0.9213867,-0.1015625,3.662109,-1.098633,-24.6582,99.2395,-7.580566,-105.8478,34.625,-89.84167,83.075,1
83859,0.06005859,1.123535,-0.1420898,4.211426,-25.75684,8.300781,98.03101,-7.207031,-106.106,22.26667,-3.641667,-0.01666667,1
84109,0.3222656,0.9018554999999999,-0.0009765625,0.7324219,-28.9917,20.87402,98.1189,-2.900391,-113.0054,40.7,-90.76667,81.65,1
84379,0.347168,0.8881836,-0.1401367,-1.525879,15.93018,-21.3623,96.14685,-5.350342,-112.3132,39.31667,-91.725,80.575,1
84679,0.06494141,0.8027344,0.347168,-14.83154,2.319336,12.45117,97.88269,-8.02002,-110.9894,15.56667,0.075,-0.775,1
84919,0.07861328000000001,0.9008788999999999,-0.1381836,-12.146,-22.76611,-10.49805,98.56934,-5.476685,-110.9619,14.50833,-3.291667,-1.65,1
85200,0.3515625,1.078613,0.09423828000000001,0.1831055,-10.31494,-37.71973,99.34387,-3.669434,-117.8998,18.025,-0.3916667,-0.9833333999999999,1
85539,0.1879883,0.9238280999999999,-0.16699219999999998,-12.63428,-4.577637,10.25391,98.1134,-6.49292,-123.6841,13.7,-3.083333,-0.85,1
85809,-0.1318359,0.9907227,0.2558594,-35.15625,28.07617,36.43799,99.19556,-8.388062,-122.1515,16.76667,0.2,-0.3916667,1
86179,0.0009765625,0.9990234,-0.159668,4.394531,0.793457,17.51709,98.72864,-7.948608,-121.9537,42.28333,-92.13333,80.06667,1
86409,0.36425779999999996,0.9438477,0.22558589999999998,-9.58252,-19.83643,-31.37207,100.2173,-5.202026,-126.145,17.8,-0.08333334,1.216667,1
86679,0.1191406,0.9677734,-0.1103516,3.967285,18.79883,18.12744,100.2228,-5.586548,-127.2656,16.23333,-3.366667,-1.525,1
86899,0.2397461,0.8710937999999999,-0.25,-4.882813,-1.220703,-15.38086,98.67371,-6.635742,-125.722,17.25,-6.675,1.3333329999999999,1
87109,0.3530273,1.072754,-0.06591797,-5.859375,10.13184,-12.08496,99.45923,-9.371338,-125.2112,42.96667,-91.64167,81.1,1
87349,0.05078125,0.9038086,-0.17822269999999998,-6.713867,3.845215,-8.300781,100.3711,-6.196289,-123.9478,14.53333,-3.675,-2.541667,1
87599,0.27001949999999997,0.8027344,0.22949219999999998,-11.23047,-30.33447,-18.55469,99.29443,-3.098145,-128.584,16.68333,-0.8083332999999999,-1.758333,1
87910,0.1879883,0.8632812999999999,-0.1831055,-26.36719,-6.347656,4.02832,97.61353,-5.960083,-136.5765,50.63334,-93.225,75.925,1
88219,0.45898439999999996,1.032227,0.1420898,9.765625,34.66797,0.3662109,98.82751,-9.063721,-136.1646,47.61666,-93.23333,77.625,1
88479,0.09326172,0.8808594,-0.125,5.737305,-7.324219,-14.46533,98.41553,-7.058716,-132.0667,14.0,-2.966667,-3.741667,1
88729,0.18212889999999998,1.389648,0.22949219999999998,10.0708,-22.82715,-39.30664,98.86597,-5.41626,-136.8896,52.325,-91.74167,77.21667,1
89029,0.15039059999999999,0.9565429999999999,-0.12207029999999999,-11.35254,15.31982,9.82666,98.97583,-6.306152,-139.3011,13.51667,-3.516667,-2.008333,1
89339,0.13525389999999998,0.9316405999999999,0.1103516,-11.65771,6.591797,23.13232,99.82178,-8.129883,-140.6305,17.19167,0.375,-0.4166667,1
89629,0.07324219,0.9047852,-0.1318359,-7.69043,-14.4043,-15.80811,98.7616,-6.135864,-137.6038,51.73333,-92.125,77.25833,1
89909,0.08349609,1.020508,-0.4453125,16.96777,-14.4043,-11.16943,99.10217,-6.690674,-142.1466,20.15833,2.841667,0.15833329999999998,1
90159,0.2036133,0.8452147999999999,-0.0390625,-15.74707,9.643555,17.94434,98.47595,-4.092407,-147.3541,15.65833,-2.9,-2.416667,1
90459,0.171875,1.035645,-0.3037109,10.19287,-5.004883,7.141113,98.24524,-5.701904,-147.6617,16.83333,3.041667,-4.266667,1
90799,0.03955078,0.8793945,0.03271484,5.981445,-5.981445,-28.32031,97.27295,-7.635498,-146.7279,16.025,-3.008333,-0.9500000000000001,1
90999,-0.01660156,0.8066405999999999,-0.15820309999999999,-3.234863,-9.155273,24.4751,95.5481,-6.591797,-146.6235,18.925,-6.9,4.191667,1
91219,0.152832,0.9824219,0.004882813000000001,-6.04248,-39.55078,8.056641,98.43201,-2.340088,-153.6877,59.9,-91.725,69.6,1
91459,0.05859375,0.9038086,-0.17822269999999998,-12.63428,-11.47461,7.141113,96.98181,-6.339111,-155.7477,16.01667,-3.158333,-0.6666667,1
91729,0.21777339999999998,1.054199,-0.3129883,22.82715,1.037598,13.42773,97.28394,-4.899902,-157.5165,17.11667,4.733333,-1.433333,1
91939,0.05371094,0.8457030999999999,-0.05126953,2.929688,6.469727,-27.34375,97.62451,-7.487183,-153.0396,56.9,-93.18333,69.8,1
92189,-0.06201172,0.9658203,-0.1831055,1.525879,-5.7983400000000005,19.22607,97.56958,-6.696167,-153.2648,22.15,-4.266667,2.641667,1
92439,0.024902340000000002,0.9013671999999999,-0.005859375,-13.42773,-30.51758,5.981445,98.47046,-2.15332,-160.0983,61.05833,-92.075,65.325,1
93819,0.2392578,0.840332,-0.04541016,2.624512,-3.356934,24.6582,97.77283,-4.718628,-166.6406,14.95,-3.0,-2.575,1
94049,0.2041016,1.44043,-0.06982422,41.07666,-17.39502,46.875,98.88794,-6.586304,-166.2946,14.95833,3.325,-0.8583333999999999,1
94359,0.09033203000000001,0.8691405999999999,-0.12207029999999999,11.65771,3.417969,-25.20752,99.11865,-8.843994,-160.5597,57.23333,-94.425,64.55833,1
94669,0.44335939999999996,1.4887700000000001,0.34960939999999996,9.399414,-11.04736,-35.09521,100.9808,-6.102905,-163.3118,20.28333,-0.325,-1.025,1
94959,0.04833984,0.9008788999999999,-0.15625,-4.882813,39.91699,10.49805,98.89343,-6.630249,-161.6089,58.74166,-94.325,63.90833,1
95269,-0.128418,1.336426,0.1401367,10.13184,-10.43701,19.83643,99.26697,-6.509399,-158.1262,58.34167,-94.44167,65.20834,1
95539,0.02197266,0.9541016,-0.04296875,-1.159668,-20.69092,-11.23047,97.66296,-8.239746,-160.5157,14.75,-2.491667,0.025,1
95789,0.1074219,1.051758,-0.4482422,31.37207,-2.624512,1.098633,98.3606,-6.679688,-165.7782,24.70833,6.5,4.583333,1
96089,0.1699219,0.8154296999999999,-0.08398438,-4.699707,9.033203,20.62988,98.73413,-4.729614,-170.0299,15.51667,-2.7,-2.141667,1
96429,0.20214839999999998,1.019043,-0.3769531,26.61133,3.112793,16.8457,99.14063,-5.762329,-169.5685,16.13333,4.85,-5.216667,1
96629,0.17431639999999998,0.8920897999999999,-0.05224609,6.530762,38.33008,-5.249023,99.5636,-10.76111,-167.1954,14.275,-0.675,0.3083333,1
96849,-0.04931641,1.052734,-0.1606445,16.35742,-12.57324,16.8457,98.82202,-8.64624,-164.4214,58.56667,-94.75,64.10833,1
97089,0.048828130000000004,0.890625,0.1616211,-8.850098,-16.60156,-15.01465,100.5249,-4.306641,-166.1957,13.13333,-0.03333333,-0.3416667,1
97369,0.184082,0.8974609,-0.1171875,7.93457,21.60645,15.13672,99.73938,-6.49292,-167.7887,14.5,-3.158333,-1.8,1
97569,0.23779299999999998,1.525879,0.04003906,9.338379,-6.591797,38.94043,101.25,-7.498169,-165.4047,57.61666,-94.10833,65.45834,1
97829,-0.01025391,1.041504,-0.08984375,16.6626,2.01416,-16.78467,100.5414,-10.98633,-164.3335,14.14167,-2.458333,0.2333333,1
98069,0.0034179690000000003,0.7236328,-0.1542969,-32.10449,-10.49805,13.06152,99.2395,-7.119141,-167.7887,18.125,-7.391667,2.041667,1
98279,-0.03662109,1.154297,-0.02148438,-11.47461,-35.33936,-7.263184,100.9644,-2.768555,-171.7712,14.33333,-0.8583333999999999,0.1833333,1
98590,0.24951169999999998,0.7963867,-0.2011719,-0.4882813,13.5498,-21.42334,98.87695,-5.526123,-172.749,60.13334,-92.73333,61.81667,1
98899,0.2089844,0.8730469,0.01367188,6.164551,47.79053,-2.929688,99.95361,-10.33813,-169.8761,14.08333,-1.216667,0.45,1
99189,0.04394531,0.9975586,-0.19384769999999998,9.277344,-33.3252,12.93945,98.4375,-7.640991,-171.3428,58.13334,-93.25833,61.19167,1
99489,0.4008789,0.8369141,-0.01074219,4.211426,-5.249023,18.24951,100.014,-3.515625,-176.5613,61.0,-92.075,59.09167,1
99769,0.1489258,0.8134766,-0.1616211,-14.5874,11.2915,-7.080078,99.02527,-7.119141,-173.3258,19.725,-4.658333,1.9583329999999999,1
100019,0.5639647999999999,1.217773,0.06689453000000001,22.15576,24.29199,9.338379,102.3212,-11.55212,-170.9528,16.73333,-2.6,-1.25,1
100319,0.01660156,0.7094727,-0.1518555,-30.27344,-2.807617,8.728026999999999,98.7616,-7.822266,-168.0963,18.25,-6.883333,3.325,1
100669,-0.09912109000000001,1.067383,0.0078125,-7.019043,-24.23096,-1.281738,100.426,-3.988037,-171.7712,60.89167,-92.3,60.975,1
100899,0.21728519999999998,0.8398437999999999,-0.175293,-11.23047,2.258301,-19.04297,99.29993,-7.695923,-169.7498,59.775,-93.05,61.69167,1
101149,-0.03808594,1.5512700000000001,0.2460938,31.31104,0.0,49.86572,101.662,-8.657227,-169.541,19.85,-0.24166669999999998,0.5416667,1
101379,0.04541016,0.9282227,-0.06933594,-1.89209,-1.220703,-15.86914,100.7996,-10.51392,-166.5582,14.78333,-2.325,-2.033333,1
101599,-0.03466797,0.7070312999999999,-0.152832,-10.80322,-13.91602,28.56445,98.05298,-9.321899,-167.7283,18.39167,-6.925,2.058333,1
101809,0.1025391,1.013672,-0.0625,-7.995605,-15.56396,4.211426,100.0525,-4.471436,-170.8484,61.65,-92.325,61.4,1
102059,0.1518555,0.8847655999999999,-0.1635742,-9.338379,-1.6479489999999999,3.4790039999999998,98.96484,-8.058472,-170.8319,15.18333,-3.758333,0.1333333,1
102309,-0.1796875,1.018066,0.203125,-45.10498,14.83154,34.48486,100.4041,-9.931641,-169.986,57.98333,-94.275,62.675,1
102579,0.1333008,0.7998046999999999,-0.08349609,-2.746582,-6.652832,-29.29688,99.30542,-8.849487,-166.1023,14.7,-2.55,-4.733333,1
102819,0.1489258,1.601563,0.190918,10.25391,-26.7334,-26.30615,98.98682,-6.459961,-167.536,61.325,-92.3,62.38334,1
103129,0.09716797,0.8598633,-0.060546880000000004,-8.361816,18.37158,7.873535,98.94287,-6.624756,-168.4039,14.06667,-3.883333,0.44166669999999997,1
103429,-0.31054689999999996,1.365234,0.15136719999999998,-36.86523,5.7983400000000005,64.7583,101.6565,-7.827759,-164.8444,58.45833,-92.875,66.14167,1
103729,0.1328125,0.8608397999999999,-0.16601559999999999,-20.26367,-21.78955,-8.666992,98.96484,-7.432251,-163.2953,59.025,-92.80833,65.2,1
103999,0.1025391,1.149414,-0.22167969999999998,16.23535,-8.850098,-21.97266,99.1571,-8.195801,-164.9542,14.30833,3.766667,0.5666667,1
104249,0.16601559999999999,0.8471679999999999,-0.05712891,-3.112793,10.00977,15.93018,100.5359,-6.212769,-171.0956,14.45833,-2.766667,-2.591667,1
104559,0.3051758,1.255371,-0.105957,30.63965,17.27295,19.104,100.4205,-6.630249,-167.3712,11.51667,4.041667,1.675,1
104859,0.11474609999999999,0.8979492,-0.128418,-8.850098,-21.48438,-23.98682,100.0031,-9.003296,-163.8281,14.06667,-2.483333,-4.775,1
105199,0.40283199999999997,1.760742,0.16601559999999999,48.88916,-24.23096,-41.38184,100.8545,-7.036743,-169.1345,20.26667,0.4666667,-2.041667,1
105439,0.1123047,0.9511719,-0.15625,-5.126953,39.91699,9.643555,99.79431,-8.410034,-168.6072,58.39167,-93.175,63.6,1
105679,0.03564453,0.9672852,-0.3515625,5.493164,-1.89209,0.7324219,99.71741,-7.261963,-166.1572,27.18333,1.091667,-1.541667,1
105919,0.0,0.8652344,-0.05908203,-15.31982,1.037598,-34.97314,99.84924,-11.22803,-160.8344,55.24166,-93.23333,67.49167,1
106159,0.011230470000000001,0.8701171999999999,-0.2011719,6.04248,-5.004883,25.5127,99.0033,-8.937378,-162.0758,22.86667,-3.525,3.258333,1
106429,-0.009277344,0.8925780999999999,0.2416992,4.882813,-42.48047,-10.68115,101.7279,-5.081177,-163.916,15.05,-0.025,-1.558333,1
106649,0.1499023,0.9086913999999999,-0.1459961,13.61084,26.00098,24.71924,100.6512,-6.015015,-168.8983,14.90833,-2.225,-3.85,1
106869,0.4130859,1.316406,-0.03173828,37.53662,15.01465,20.26367,100.816,-7.459717,-165.4047,16.25833,1.508333,2.75,1
107139,0.09130859,0.8139647999999999,-0.1040039,-6.225586,-27.64893,-26.61133,100.3656,-8.338623,-161.9055,57.875,-92.23333,66.69167,1
107419,0.284668,1.144531,-0.26318359999999996,13.48877,-6.774902,0.6103516,100.1953,-8.289185,-165.097,27.125,4.691667,2.275,1
107659,0.2924805,0.8969727,0.01757813,-3.2958979999999998,1.342773,26.24512,99.95361,-4.669189,-169.2334,60.24166,-92.04166,62.475,1
107959,0.23681639999999998,0.8071288999999999,-0.1479492,-20.01953,-16.47949,-22.33887,98.56384,-6.481934,-169.92,17.38333,-6.45,0.5583332999999999,1
108209,0.3974609,1.140625,-0.03271484,-10.0708,34.42383,-10.31494,100.1678,-10.96985,-169.4312,14.96667,-0.775,-1.5833329999999999,1
108479,-0.03564453,0.8388671999999999,-0.1918945,4.516602,0.6103516,28.68652,98.25073,-8.997803,-167.2394,21.83333,-4.516667,2.908333,1
108789,0.2026367,0.8969727,-0.03125,-9.765625,-20.1416,14.03809,100.4041,-4.762573,-170.9967,15.26667,-1.975,0.7916667,1
109089,0.34912109999999996,1.097168,-0.1518555,8.239746,11.04736,-16.17432,99.12415,-6.795044,-168.4314,26.8,0.8916666,5.175,1
109389,0.02587891,0.9599609,-0.01855469,10.92529,14.4043,-11.23047,100.0964,-10.31616,-163.7347,14.55833,-1.883333,-0.06666667,1
110879,-0.0390625,0.8413086,-0.1455078,-18.31055,-19.59229,25.26855,96.1084,-8.876953,-165.6903,20.2,-5.475,4.675,1
111069,0.1806641,0.8803711,0.04003906,-2.13623,-14.09912,4.02832,98.78357,-4.822998,-169.6069,61.46667,-92.26667,60.46667,1
111309,0.1733398,0.8891602,-0.1484375,-14.22119,5.554199,0.7324219,98.08044,-8.031006,-168.6621,15.125,-3.083333,1.975,1
111549,0.1655273,0.6811522999999999,0.2578125,15.68604,-8.422852,35.27832,100.069,-10.77759,-166.4484,57.86666,-93.76667,63.9,1
111789,0.16259769999999998,0.8198242,-0.1015625,-5.310059,-35.94971,-17.51709,100.2942,-8.135376,-167.9315,59.98333,-93.34167,60.75834,1
112099,0.09179688,1.322266,-0.09570313,-12.08496,-7.873535,-24.16992,100.426,-8.256226,-173.2874,60.95833,-93.35833,59.35833,1
112389,0.184082,0.9106445,-0.06982422,2.807617,21.1792,23.92578,99.59656,-5.822754,-173.1555,15.11667,-2.425,-2.075,1
112709,0.1518555,1.355957,-0.10693359999999999,26.30615,9.70459,19.83643,99.67346,-6.553345,-166.5253,12.59167,3.733333,-0.8666667,1
112979,0.1191406,0.8725586,-0.09960938,-2.868652,-28.38135,-21.91162,98.77258,-8.294678,-167.2888,14.01667,-2.466667,-3.608333,1
113289,0.31054689999999996,1.5073239999999999,0.16699219999999998,-0.6103516,19.34814,-33.99658,100.6073,-6.679688,-169.563,61.68333,-92.175,61.45,1
113599,0.125,0.8554687999999999,-0.09667969,-8.972168,2.563477,14.28223,99.50317,-6.630249,-168.717,61.45833,-92.81667,60.65833,1
113859,0.04589844,1.070801,-0.40332029999999996,14.70947,23.13232,5.371094,100.3381,-6.113892,-164.0863,15.95833,3.916667,-5.966667,1
114099,0.01025391,0.7558594,-0.004394531,6.713867,-15.80811,-17.8833,99.18457,-10.03052,-162.7405,59.34167,-94.19167,63.8,1
114439,0.15869139999999998,1.496094,0.05029297,8.605957,-19.65332,-24.29199,100.8435,-8.904419,-167.7228,17.275,1.8333329999999999,1.608333,1
114719,0.184082,0.8554687999999999,-0.052734380000000004,-4.943848,24.53613,13.91602,99.50867,-7.404785,-169.1565,13.725,-1.641667,-1.541667,1
115019,0.2885742,1.158691,-0.1254883,15.74707,10.13184,15.50293,100.6567,-7.684937,-163.0591,16.60833,2.091667,3.8,1
115399,0.04394531,0.7314453,-0.09130859,-28.9917,-16.72363,2.929688,98.62427,-7.756348,-166.8329,60.69167,-94.04166,60.925,1
115649,0.0546875,1.322754,0.15136719999999998,-5.92041,-33.56934,-4.577637,101.9257,-7.108154,-169.2938,17.19167,0.44166669999999997,6.05,1
115899,0.09375000000000001,0.7729492,-0.06884766,-16.54053,18.06641,20.69092,101.3049,-8.300171,-167.9041,61.3,-92.86667,62.31667,1
116139,0.14257809999999999,1.10498,-0.3554688,1.098633,15.25879,-4.760742,100.5029,-5.806274,-166.7175,26.75833,3.708333,-0.9583332999999999,1
116379,0.6845703,1.1875,0.048828130000000004,31.67725,12.81738,0.06103516,99.51965,-9.761353,-168.1787,15.025,-0.9833333999999999,0.9500000000000001,1
116599,-0.1074219,0.5766602,-0.1176758,-12.39014,-18.06641,7.446289,98.90991,-6.866455,-166.745,63.19167,-91.26667,60.93333,1
116849,0.5742188,1.371094,0.10498049999999999,-3.723145,26.61133,-67.56592,103.3209,-3.240967,-174.3091,15.25,0.4666667,-3.558333,1
117119,0.1557617,0.7973633,-0.06738281,-12.93945,-16.11328,14.28223,102.0465,-4.334106,-176.7755,13.875,-4.0,-0.49166669999999996,1
117369,0.1967773,1.005371,-0.32519529999999996,34.36279,23.19336,12.02393,102.4036,-6.751099,-172.2491,11.675,4.233333,-2.4,1
117599,-0.1000977,1.120117,-0.04931641,-3.540039,13.67188,-14.70947,102.5629,-9.794312,-168.0359,13.25,-1.891667,-0.2583333,1
117829,0.48095699999999997,1.167969,-0.3154297,24.71924,-13.73291,11.23047,100.1678,-7.261963,-172.5897,65.53333,-90.68333,57.80833,1
118099,-0.2958984,1.16748,0.02392578,-14.77051,-8.117676,-8.422852,101.5796,-3.378296,-169.6893,14.65,-1.391667,1.275,1
118339,0.199707,0.7163086,-0.2104492,1.525879,11.1084,-22.52197,100.069,-6.893921,-168.3435,67.1,-89.7,61.05,1
118639,0.11669919999999999,1.031738,-0.022460940000000002,3.051758,40.03906,-9.70459,102.4091,-10.7666,-162.4384,13.9,-1.191667,-0.6666667,1
118949,0.3081055,1.220703,-0.1259766,23.19336,-21.05713,14.5874,101.3269,-8.360596,-165.9155,28.775,2.008333,2.866667,1
119259,0.2514648,0.8193359,-0.006835938000000001,-6.04248,-14.46533,27.89307,102.7386,-3.66394,-168.0908,14.75833,-2.291667,0.7583333,1
119589,-0.02783203,1.081055,-0.3388672,0.3662109,-4.333496,-0.6713867,102.3706,-5.641479,-169.4586,29.75833,2.616667,7.691667,1
119899,-0.030273440000000002,0.8652344,-0.09033203000000001,-2.380371,18.37158,-28.9917,102.9968,-10.71167,-164.317,14.14167,-2.916667,-0.625,1
120139,0.024902340000000002,1.036621,-0.590332,15.68604,-14.28223,-17.45605,102.5079,-8.822021,-164.0369,65.3,-91.25,67.03333,1
120379,-0.07714844,1.111328,-0.07080078000000001,-13.48877,-51.57471,8.117676,102.6672,-3.306885,-168.9532,14.71667,-0.3083333,-2.183333,1
120619,0.02392578,0.8735352,-0.175293,-13.18359,13.24463,5.126953,100.6787,-8.525391,-167.3218,16.95833,-2.741667,-0.5,1
120829,-0.15039059999999999,0.7524413999999999,0.2426758,-26.61133,20.1416,39.0625,100.9314,-10.84351,-165.8057,63.40833,-93.13333,66.85,1
121079,0.1518555,0.7568359,-0.128418,-0.1831055,-13.24463,-31.79932,101.272,-8.953857,-162.0538,14.44167,-1.9000000000000001,-5.966667,1
121359,0.2924805,1.677246,0.2592773,15.25879,-30.2124,-47.9126,102.6782,-5.9655759999999995,-165.7397,67.85,-89.91666,67.125,1
121639,0.1577148,0.9155272999999999,-0.1499023,-15.44189,6.286621,10.13184,101.651,-6.520386,-171.4691,66.81667,-91.96667,63.45833,1
121929,0.12695309999999999,1.01123,-0.28564449999999997,9.216309,13.79395,2.685547,100.9149,-5.454712,-169.574,15.55833,4.95,-2.366667,1
122179,0.01855469,0.7880859,-0.04736328,2.563477,-15.38086,-30.82275,101.5027,-8.876953,-164.66310000000001,64.75833,-92.18333,68.33334,1
122449,0.06787109,1.493652,-0.01611328,14.09912,-32.4707,-30.70068,101.9806,-7.498169,-168.4314,65.58334,-92.39167,66.20834,1
122749,0.2817383,0.8798828,0.0034179690000000003,6.835938,-15.86914,24.29199,101.7114,-3.356323,-173.1995,15.55833,-1.425,-0.08333334,1
122989,0.0625,1.0625,-0.24121089999999998,10.62012,21.78955,-11.04736,101.4807,-5.50415,-169.4916,27.575,0.24166669999999998,6.266667,1
123269,-0.06201172,0.984375,-0.06640625,-6.9580079999999995,11.84082,-14.09912,103.1177,-10.89294,-165.0201,14.56667,-1.7,-1.308333,1
123609,0.24951169999999998,1.09082,-0.24462889999999998,12.51221,-15.31982,20.20264,102.7881,-11.84326,-166.4703,20.425,-0.3083333,-0.925,1
123879,0.5151367,0.8867187999999999,-0.009277344,17.7002,74.58496,-0.793457,103.2495,-7.849731,-163.515,17.1,-1.258333,1.25,1
124249,0.1806641,0.9663086,-0.1679688,8.239746,134.5215,-17.39502,98.59131000000001,-12.12341,-129.2432,17.79167,-2.516667,1.558333,1
124449,-0.008789063,0.9091796999999999,-0.03955078,-11.04736,158.1421,-12.3291,89.87366,-11.78833,-85.38025,20.975,-90.05833,88.94167,1
124729,-0.009765625,0.9794921999999999,-0.1645508,8.972168,128.7842,-17.33398,87.19849,-8.085938,-56.68396,17.81667,-3.066667,1.35,1
124969,-0.06347656,1.005859,-0.1835938,7.324219,99.42627,1.037598,86.3031,-5.218506,-31.75049,16.64167,-3.008333,0.2666667,1
125179,-0.1230469,1.252441,-0.20605469999999998,10.25391,11.47461,6.835938,84.62219,-6.306152,-14.82605,-8.766666,-86.90833,55.91667,1
125419,0.230957,0.9384766,0.05908203,11.59668,16.47949,17.63916,86.40747,-7.635498,-12.16736,14.01667,0.31666669999999997,0.1083333,1
125669,0.253418,0.9360352,-0.1479492,-9.033203,27.58789,-10.00977,87.7478,-12.28271,-5.74585,20.1,-4.9,1.533333,1
125979,0.5375977,0.9467772999999999,0.2724609,9.460449,24.4751,21.97266,89.12659,-11.43677,3.88916,-11.56667,-80.85833,43.26667,1
126289,0.08154297,0.8032227,-0.11621089999999999,-11.59668,-8.972168,-2.13623,90.34058,-7.3718259999999995,11.3269,-8.841666,-83.44167,39.74166,1
126549,0.2578125,1.433105,0.046875,31.18896,-52.73438,-13.12256,94.87793,-7.558594,5.07019,17.11667,1.925,-0.225,1
127899,0.2158203,1.039063,-0.07714844,19.34814,7.080078,28.13721,99.71741,-7.564087,6.130371,14.275,-2.791667,-4.383333,1
128259,0.3862305,1.4887700000000001,-0.11279299999999999,10.55908,-2.319336,17.27295,98.88245,-8.926392,3.592529,16.23333,2.683333,0.275,1
128499,0.041015630000000004,0.9003905999999999,-0.12207029999999999,21.42334,9.643555,-30.94482,98.40454,-7.619019,8.470459,14.7,-2.891667,-2.191667,1
128809,0.2666016,1.376953,0.1694336,-13.48877,-1.8310549999999999,-26.30615,103.4857,-5.300903,5.998535,-9.4,-83.2,48.03333,1
129109,0.1831055,0.9291992,-0.1762695,-20.20264,-22.52197,14.95361,100.5084,-8.00354,-1.593018,-11.84167,-79.75,51.63334,1
129389,0.18164059999999999,1.134277,-0.3510742,31.12793,15.38086,16.41846,100.7172,-6.37207,-2.010498,13.90833,5.766667,-3.683333,1
129659,0.01220703,0.8613280999999999,-0.08398438,7.629395,15.38086,-27.771,102.6398,-9.041748,1.323853,15.23333,-3.491667,-1.366667,1
129969,0.07910156,1.301758,-0.3911133,9.338379,-29.47998,-9.277344,105.6116,-6.2677,-1.186523,14.50833,2.383333,-0.7916667,1
130179,0.2822266,0.9794921999999999,-0.1020508,5.004883,-14.34326,29.78516,103.8318,-5.372314,1.378784,15.15,-0.7833333,-2.591667,1
130389,0.1132813,0.8769530999999999,-0.2124023,-30.94482,-0.5493163999999999,-2.441406,102.3322,-9.255981,1.082153,18.50833,-2.783333,-0.2833333,1
130599,0.06103516,1.830566,-0.05224609,16.90674,-11.53564,30.70068,103.0627,-9.255981,4.053955,17.28333,2.083333,-0.8833333,1
130809,0.11474609999999999,0.9072266,-0.1098633,1.89209,-1.281738,-30.94482,101.7938,-9.140625,9.558105,-9.2,-80.46667,44.35833,1
131059,0.1118164,1.143066,-0.43408199999999997,10.31494,-13.06152,-8.850098,103.3539,-9.684448,9.865723,16.68333,2.441667,-5.733333,1
131319,0.1357422,0.8007812999999999,-0.05957031,-9.460449,-21.24023,20.99609,101.9861,-6.751099,5.614014,14.56667,-2.066667,-1.441667,1
131609,0.29492189999999996,1.012695,-0.137207,-0.1831055,2.380371,-27.03857,100.6458,-6.646729,4.004517,27.275,-0.1833333,5.891667,1
131819,0.29492189999999996,1.012695,-0.137207,-0.1831055,2.380371,-27.03857,100.6458,-6.646729,4.004517,13.85833,-0.45,3.016667,1
132039,0.06640625,0.796875,-0.1875,-14.52637,12.81738,-1.220703,101.5631,-7.954102,12.86499,-7.091667,-80.96667,42.25,1
132339,-0.05419922,0.8901367,0.125,-17.51709,-24.41406,-8.911133,101.2939,-5.174561,12.48596,14.44167,0.275,-0.1333333,1
132639,0.41259769999999996,0.9145508,-0.1152344,4.150391,4.272461,-26.24512,100.2832,-7.349854,4.801025,-7.35,-81.75833,46.425,1
132919,0.1323242,0.7709961,0.007324219000000001,14.22119,38.57422,-18.18848,101.25,-10.17883,5.103149,-8.741667,-80.45,46.58333,1
133219,-0.03857422,0.8681641,-0.1674805,-13.91602,27.09961,8.361816,101.8872,-7.756348,11.75537,21.39167,-3.391667,3.375,1
133469,-0.07470703000000001,1.141602,0.03662109,-13.24463,-22.27783,-11.35254,103.4583,-4.471436,11.37085,13.04167,-0.2166667,-0.8083332999999999,1
133739,0.2636719,0.9287109,-0.21728519999999998,-4.821777,0.9765625,-23.01025,101.5137,-7.992554,9.893188,20.53333,-4.541667,2.975,1
134109,-0.1025391,0.8061522999999999,0.02441406,0.8544921999999999,-6.591797,-30.2124,100.3601,-8.508911,10.56885,-6.65,-83.98333,44.325,1
134359,-0.05517578,1.038574,-0.1958008,2.13623,-22.27783,22.33887,100.849,-7.289429,7.207031,24.55,-4.85,2.041667,1
134629,0.08642578000000001,0.6669921999999999,0.21435549999999998,-17.7002,24.29199,-19.34814,101.3708,-4.389038,6.361084,15.34167,-0.31666669999999997,1.883333,1
134829,0.1948242,0.7875977,-0.024902340000000002,6.713867,21.05713,31.55518,100.7776,-6.888428,4.361572,15.725,-2.591667,-3.541667,1
135049,0.015136720000000001,1.604004,0.01220703,13.12256,-14.4043,45.41016,102.074,-9.387817,5.564575,-7.933333,-81.85,48.24166,1
135279,0.01416016,0.7182617,-0.04394531,5.065918,42.72461,-30.76172,99.82178,-10.38208,10.05249,14.25,-2.383333,1.6,1
135539,0.1118164,1.170898,-0.35791019999999996,37.10938,-19.34814,-31.18896,103.0133,-7.679443,10.849,13.9,6.091667,-0.7083332999999999,1
135849,0.2436523,0.7504883,-0.04199219,2.01416,24.16992,36.13281,102.3047,-5.751343,4.888916,-5.775,-83.29166,48.55,1
136159,0.3447266,1.560547,0.05126953,22.70508,-14.22119,27.89307,103.1067,-8.091431,6.295166,-6.366667,-82.225,47.24166,1
136419,0.05908203,0.855957,-0.08154297,12.08496,39.73389,-19.77539,101.3214,-10.29968,10.03601,14.21667,-1.808333,1.733333,1
136669,0.1850586,1.1323239999999999,-0.5322266,24.78027,-5.065918,-13.30566,103.0078,-8.322144,10.79956,-4.191667,-83.93333,44.525,1
136969,0.315918,0.7548828,-0.01855469,-8.300781,-7.629395,34.5459,101.3654,-5.037231,4.476929,14.89167,-2.425,-1.175,1
137299,0.25488279999999996,1.34668,-0.08789063,24.41406,-4.02832,26.00098,101.0138,-6.59729,4.822998,15.45,3.8083329999999997,-4.583333,1
137569,-0.06445313,0.7929687999999999,-0.020996090000000002,9.399414,-2.929688,-27.83203,99.68994,-7.338867,5.993042,-4.633333,-83.6,46.175,1
137849,0.23291019999999998,1.1635739999999999,-0.1801758,16.96777,-25.26855,8.544922,100.4974,-7.454224,5.432739,28.05833,2.975,-0.4,1
138099,0.3608398,0.8603516,-0.015625,2.258301,-6.835938,26.97754,101.6455,-3.988037,3.427734,16.1,-1.658333,1.108333,1
138399,0.020996090000000002,1.162109,-0.36474609999999996,6.04248,10.00977,-1.220703,100.8545,-6.113892,5.993042,23.075,4.358333,-0.7666666999999999,1
138769,0.1357422,0.8554687999999999,-0.1201172,11.84082,-1.525879,-23.31543,100.3821,-7.201538,8.909912,-3.716667,-84.125,45.38334,1
139039,0.3608398,1.177734,-0.29345699999999997,15.07568,8.789063,-3.845215,100.2173,-8.366089,10.87097,23.29167,4.791667,-1.633333,1
139279,0.2563477,0.8779296999999999,-0.04394531,-2.746582,-11.23047,33.14209,100.5139,-5.064697,10.38208,-2.408333,-85.23333,44.6,1
139519,0.1884766,0.8549804999999999,-0.1489258,-9.765625,-2.624512,-16.8457,100.0635,-8.041992,9.569092,20.11667,-7.475,0.325,1
139759,0.6445312999999999,0.9746094,0.1479492,5.187988,16.35742,4.02832,99.63501,-11.68945,8.366089,-5.808333,-81.3,44.58333,1
139999,0.1552734,0.8642578,-0.17382809999999999,19.22607,-4.455566,-23.49854,100.3217,-8.184814,12.65625,15.375,-2.366667,-2.958333,1
140279,0.1801758,1.210938,-0.4467773,20.93506,-15.44189,-17.82227,100.9479,-8.195801,11.18408,18.925,5.408333,-1.8666669999999999,1
140499,0.3510742,0.7612304999999999,0.01855469,-7.446289,1.586914,34.11865,98.59131000000001,-4.65271,6.201782,-3.191667,-84.26667,45.86666,1
140779,0.04296875,1.05957,-0.3681641,15.01465,-8.117676,22.82715,97.88818,-6.740112,7.185059,-3.958333,-83.41666,45.20833,1
141079,0.3764648,0.887207,0.04980469,7.629395,34.729,-7.93457,98.69019,-11.01379,7.196045,14.80833,-0.8583333999999999,1.3333329999999999,1
141319,-0.07958984,0.9301758,-0.22851559999999999,-4.211426,-25.75684,23.25439,99.23401,-8.190308,11.23901,-3.566667,-83.40833,43.975,1
141589,0.3310547,0.8583984,-0.06494141,-16.60156,-38.75732,29.11377,100.5469,-2.521362,5.119629,-1.825,-85.775,47.66667,1
141889,0.1435547,0.8496094,-0.184082,-27.52686,-7.8125,-4.882813,99.31091,-7.410278,3.878174,20.275,-3.15,2.2,1
142129,0.42724609999999996,0.8828125,0.1655273,-6.835938,16.6626,19.04297,99.74487,-9.783325,2.713623,14.425,-0.8083332999999999,0.4333333,1
142419,0.03955078,0.934082,-0.1835938,-20.75195,5.981445,6.103516,99.94812,-6.904907,8.025513,20.56667,-3.766667,1.166667,1
142749,-0.1855469,1.104004,0.1152344,-10.74219,-31.92139,-11.53564,100.1129,-3.603516,6.124878,13.425,-0.1416667,-1.425,1
143059,0.1489258,0.8500977,-0.1655273,-8.605957,-7.324219,-17.51709,98.29468,-7.498169,3.070679,19.275,-7.308333,1.316667,1
143289,-0.05761719,0.9575195,0.34082029999999996,-34.79004,-3.051758,20.69092,100.6183,-9.354858,2.252197,14.91667,0.2333333,1.491667,1
143509,0.07763672,0.8598633,-0.1367188,-2.929688,7.080078,-10.92529,100.3821,-6.860962,7.827759,-3.866667,-84.14167,44.19167,1
144859,0.1293945,1.303223,-0.24072269999999998,14.77051,-6.652832,7.202148,101.1951,-8.805541999999999,8.898926,28.35833,0.04166667,0.9166667,1
145099,-0.1450195,0.8730469,0.1674805,-2.746582,-16.8457,-6.04248,102.1674,-4.542847,9.607544,13.69167,-0.7333333,-0.5333333,1
145299,0.23339839999999998,0.9951171999999999,-0.1552734,12.93945,14.64844,28.32031,102.0575,-6.756592,4.575806,13.78333,-3.108333,-3.366667,1
145519,0.1879883,1.214844,-0.3007813,3.112793,16.47949,-10.62012,100.2338,-6.047974,6.031494,25.39167,0.975,-0.6916667,1
145739,0.08691406,0.7871094,-0.04541016,2.990723,44.92188,-17.27295,98.79456,-11.20056,10.0415,15.125,-2.091667,1.691667,1
146009,-0.1030273,0.8916016,-0.1293945,-10.25391,-4.150391,12.93945,98.80005,-9.195557,14.39758,19.525,-6.858333,1.6,1
146229,-0.1459961,1.01123,0.0234375,-13.85498,-35.09521,-5.187988,100.2667,-3.911133,9.854736,13.66667,0.4666667,-1.108333,1
146529,0.300293,0.9897461,-0.175293,-4.577637,-8.728026999999999,-26.7334,98.14636,-8.129883,7.190552,-4.775,-83.34167,43.84167,1
146839,0.378418,0.9155272999999999,0.01904297,16.05225,49.98779,0.7324219,99.67896,-11.34888,6.707153,13.15833,-0.5583332999999999,1.283333,1
147159,-0.07324219,1.106934,-0.17382809999999999,1.953125,-26.12305,16.72363,100.4974,-8.360596,9.244995,21.93333,-3.166667,0.875,1
147429,0.2895508,0.9140625,-0.04638672,-15.74707,-31.18896,24.4751,100.6073,-3.290405,5.097656,-2.775,-85.53333,47.53333,1
147709,0.06982422,0.8178711,-0.11621089999999999,-21.66748,-11.41357,10.25391,98.95386,-8.508911,4.663696,18.29167,-3.358333,0.008333334000000001,1
147959,0.2260742,0.8999022999999999,0.2773438,-7.446289,10.31494,6.591797,99.21753,-10.3656,4.378052,13.85833,-0.275,2.0,1
148259,0.01660156,0.8486328,-0.190918,-10.98633,-0.793457,4.089355,101.0303,-7.124634,10.9314,21.475,-3.883333,2.8083329999999997,1
148629,0.2617188,0.7617187999999999,-0.005371094000000001,-4.882813,-14.09912,30.39551,99.78882,-3.592529,3.845215,-1.4,-84.1,46.44167,1
148889,0.230957,1.015137,-0.19042969999999998,-12.39014,-19.83643,-23.13232,98.95386,-6.59729,2.098389,20.475,-7.6,1.05,1
149139,0.5087891,0.9604492,0.08789063,5.249023,28.13721,-1.89209,99.4812,-8.931885,0.302124,-4.591667,-80.66666,45.525,1
149379,0.07568359,0.8710937999999999,-0.1879883,-2.075195,0.7324219,-7.263184,100.5359,-6.135864,5.081177,17.25,-3.033333,-0.9500000000000001,1
149619,0.1767578,0.824707,0.2885742,9.277344,28.13721,-31.49414,101.1841,-3.120117,2.971802,-2.4,-84.55,46.075,1
149869,0.2578125,0.8710937999999999,-0.004882813000000001,13.67188,23.01025,35.21729,99.9646,-5.020752,0.7800292999999999,14.88333,-1.975,-1.108333,1
150149,0.2768555,1.166504,-0.2797852,19.77539,31.49414,-5.92041,100.7886,-6.229248,3.916626,26.0,-2.016667,3.366667,1
150369,0.06689453000000001,0.828125,-0.04638672,11.65771,36.68213,-13.24463,101.3983,-10.14587,4.411011,-6.833333,-81.56667,45.65,1
150640,0.137207,1.169922,-0.1967773,7.019043,-17.8833,3.2958979999999998,101.283,-8.843994,6.987305,-6.516667,-82.65,45.29167,1
150929,-0.152832,1.117676,0.1308594,-5.554199,-25.45166,-18.31055,101.8378,-3.746338,7.069702,14.93333,-0.04166667,1.016667,1
151189,0.1542969,0.8295897999999999,-0.2045898,-26.67236,6.347656,-20.26367,100.025,-8.195801,8.811035,-5.791667,-84.58334,44.31667,1
151459,0.5625,1.03125,0.1308594,5.065918,23.62061,0.793457,100.069,-10.64026,8.113403,-7.891667,-82.59167,45.81667,1
151759,0.1328125,0.8408203,-0.12255859999999999,3.356934,-22.52197,-17.8833,100.7391,-7.190552,10.21729,15.975,-3.475,-1.741667,1
152009,0.4848633,1.47168,0.24560549999999998,6.04248,-7.873535,-54.32129,101.9257,-5.103149,8.860474,18.90833,0.675,-1.183333,1
152279,0.04980469,0.8945312999999999,-0.1616211,-7.629395,5.67627,13.06152,98.92639,-8.920898,8.657227,15.73333,-2.75,-0.03333333,1
152619,-0.4375,0.9223633,0.3300781,-40.40527,-25.63477,16.23535,100.1514,-9.437256,11.76086,17.025,0.45,0.925,1
152889,0.105957,0.8754883,-0.1523438,-9.338379,5.187988,-5.126953,101.1456,-6.536865,10.06348,16.63333,-3.183333,-0.8,1
153259,0.1953125,1.072754,-0.05419922,14.09912,-14.22119,21.91162,101.8158,-4.031982,6.893921,-2.633333,-86.73333,49.75834,1
153529,0.06347656,0.9135742,-0.17480469999999998,-19.71436,17.33398,6.652832,100.7556,-8.849487,9.783325,17.78333,-2.891667,1.233333,1
153769,0.4599609,1.236816,-0.2358398,28.01514,18.49365,18.06641,101.6071,-8.168335,12.28821,11.85,3.858333,-3.041667,1
153979,0.140625,0.9316405999999999,-0.017089840000000002,6.225586,36.19385,-23.74268,99.8877,-10.81055,12.95837,14.15,-0.8416665999999999,0.1833333,1
154189,0.10693359999999999,1.175781,-0.1621094,9.94873,-44.55566,21.11816,99.54163,-9.09668,12.71118,-4.316667,-84.10833,44.18333,1
154439,-0.2070313,0.8540038999999999,0.2119141,-7.8125,2.990723,-24.4751,100.2612,-4.290161,12.82654,14.21667,-0.85,-0.17500000000000002,1
154689,0.09472656,0.765625,-0.17480469999999998,-12.81738,14.09912,-8.178711,99.72839,-8.596802,13.7384,20.08333,-5.35,2.641667,1
154989,0.5727538999999999,0.9760742,0.171875,5.615234,11.35254,14.22119,100.0031,-11.22803,15.05676,-4.8,-83.4,41.04167,1
155299,-0.07763672,0.9052734,-0.1538086,-20.75195,19.77539,14.52637,99.03076,-9.113159,24.92249,19.41667,-5.191667,1.141667,1
155629,-0.159668,1.119141,0.03662109,7.019043,-17.63916,-19.28711,100.3491,-4.718628,22.37915,14.225,-0.3333333,0.24166669999999998,1
155899,0.22558589999999998,0.8481445,-0.1806641,-13.00049,12.69531,-18.55469,99.71191,-8.613281,24.73572,-0.5333333,-86.54166,36.13334,1
156169,0.1191406,0.9829102,0.1464844,-2.868652,-21.11816,21.24023,101.5411,-10.90393,24.71924,17.25,0.6916667,0.9333332999999999,1
156409,0.1264648,0.7993163999999999,-0.1401367,-7.751465,-12.02393,-12.146,100.08,-8.728638,32.45361,1.633333,-87.13333,32.525,1
156709,0.3208008,1.041504,0.1386719,1.342773,23.80371,-19.71436,100.459,-6.146851,26.60339,16.61667,0.8833333,1.425,1
157059,0.1870117,0.9506836,-0.137207,1.037598,17.82227,9.338379,101.8597,-8.85498,28.94348,14.05,-4.35,-0.36666669999999996,1
157329,-0.17382809999999999,1.384766,0.2670898,3.540039,1.89209,37.10938,101.8927,-9.733887,34.37073,17.975,0.1666667,1.783333,1
157699,0.02587891,0.8828125,-0.2319336,-21.1792,-1.464844,20.1416,99.10767,-7.833252,35.43091,3.7,-88.23333,31.18333,1
157959,0.1152344,0.8266602,0.144043,-21.11816,-15.50293,-27.40479,99.83276,-5.339355,32.7063,17.85833,-0.2833333,-0.5,1
158209,0.2011719,0.8066405999999999,-0.02832031,3.845215,-0.3662109,33.56934,99.02527,-6.207275,28.61389,15.03333,-3.7,-1.025,1
158419,0.16259769999999998,1.210938,-0.3139648,22.15576,6.103516,19.89746,99.55811,-8.322144,26.70227,14.0,5.566667,-1.908333,1
158689,0.2348633,0.8818359,-0.02734375,17.21191,56.64063,-5.249023,98.9209,-12.39258,30.64087,13.79167,-1.716667,3.425,1
158899,-0.03222656,1.113281,-0.1230469,15.07568,-11.77979,11.35254,99.51416,-10.56885,41.48438,5.283333,-88.44167,29.59167,1
159150,-0.1489258,0.871582,0.08886719,-12.20703,-7.93457,-20.20264,101.5192,-5.899658,42.79175,13.56667,-0.9500000000000001,-1.9916669999999999,1
159429,0.1655273,0.7958984,-0.1484375,-22.03369,-7.019043,-15.31982,99.58557,-9.223022,39.64417,5.891667,-89.24167,30.59167,1
159699,0.4458008,1.102051,0.09912109000000001,-0.7324219,35.09521,12.20703,100.3711,-12.35962,40.01221,3.983333,-87.76667,31.21667,1
159999,0.10693359999999999,0.9008788999999999,-0.175293,-0.6713867,16.78467,-14.89258,100.426,-10.11292,46.92261,15.26667,-3.416667,-1.733333,1
160249,0.359375,1.225586,0.1733398,18.9209,18.12744,-26.06201,102.0245,-7.163086,46.98853,11.03333,-91.85,30.30833,1
160519,0.07275391,0.8779296999999999,-0.1376953,-14.28223,13.67188,18.24951,100.1459,-9.316406,45.34058,8.116667,-89.60833,30.125,1
161929,0.03125,1.067383,-0.3115234,21.48438,13.67188,8.972168,99.22302,-8.800049,55.70618,13.38333,-90.55,27.1,1
162219,0.11425779999999999,0.9760742,-0.03222656,10.31494,47.85156,-14.70947,100.1239,-12.71118,58.45825,14.875,-1.858333,2.475,1
162469,-0.05957031,1.021973,-0.20947269999999998,1.098633,-4.089355,9.765625,99.57458,-10.75562,66.14868,17.88333,-91.6,25.65,1
162749,0.2763672,0.9868163999999999,-0.028808590000000002,0.12207029999999999,-20.99609,15.38086,100.2777,-5.344849,65.91248,15.69167,-1.258333,0.8416665999999999,1
163079,0.3344727,0.9116211,-0.1694336,-9.887695,9.277344,-23.80371,98.0365,-8.470459,67.34619,20.28333,-5.316667,4.791667,1
163399,0.1489258,0.9189453,-0.02783203,6.591797,41.80908,-6.774902,99.16809,-12.46948,69.41711,13.29167,-0.5333333,1.25,1
163629,0.06005859,0.8618163999999999,-0.17822269999999998,-13.06152,15.56396,-3.540039,99.69543,-8.629761,72.79541,17.76667,-2.433333,-0.1333333,1
163839,0.1450195,1.304688,-0.2729492,24.96338,-26.00098,-24.10889,100.5634,-8.959351,71.47705,14.18333,4.041667,-0.3083333,1
164049,0.199707,0.8710937999999999,-0.04785156,4.577637,27.40479,29.47998,99.1571,-7.56958,69.04358,21.775,-92.675,25.23333,1
164299,0.3320313,1.103516,-0.1689453,12.45117,10.74219,-24.96338,98.17932,-7.23999,71.84509,24.03333,-2.75,7.35,1
164529,-0.1333008,1.013184,-0.03466797,7.080078,31.00586,-16.60156,99.17358,-12.38708,77.33276,23.41667,-93.01667,24.85833,1
164789,0.03076172,0.9472655999999999,-0.2114258,-23.4375,23.86475,12.69531,99.33838,-9.42627,78.5907,18.93333,-2.633333,0.6333333,1
165059,0.2617188,1.376953,0.1606445,-10.80322,-41.1377,-11.47461,99.7229,-10.14587,76.83289,13.55833,2.916667,3.558333,1
165269,0.2617188,1.376953,0.1606445,-10.80322,-41.1377,-11.47461,99.7229,-10.14587,76.83289,15.11667,-2.166667,0.6166667,1
165489,0.03710938,1.191406,-0.37988279999999996,18.43262,7.141113,-9.70459,98.18481,-9.937134,86.8689,24.5,2.733333,-4.2,1
165759,0.15136719999999998,0.7421875,-0.03369141,-0.42724609999999996,19.104,-40.46631,98.71765,-12.51343,91.50513,31.93333,-94.90833,25.89167,1
166029,-0.1884766,0.9824219,-0.1928711,2.13623,-28.86963,7.202148,99.48669,-9.558105,94.13086,20.76667,-4.741667,1.625,1
166269,0.16699219999999998,0.9453125,-0.1098633,-33.08105,-32.34863,30.63965,101.228,-4.674683,89.18701,34.125,-95.45,26.70833,1
166579,0.3867188,1.079102,-0.18261719999999998,2.807617,7.141113,-18.61572,98.06396,-7.404785,83.94104,30.325,-93.775,23.89167,1
166859,0.2978516,0.8574219,0.1928711,-26.24512,15.01465,8.178711,97.02026,-10.14038,80.54626,13.91667,0.4583333,2.866667,1
167109,-0.08154297,0.7802734,-0.2045898,-7.080078,-2.13623,7.446289,96.20178,-8.300171,86.94031,19.76667,-4.141667,1.841667,1
167439,-0.2011719,1.037109,0.09130859,-18.73779,-38.20801,-16.60156,99.31641,-3.861694,80.99121,11.925,0.675,-0.5833332999999999,1
167639,0.10693359999999999,0.9038086,-0.1176758,-9.765625,16.8457,20.62988,97.92114,-8.585815,79.29382,14.875,-2.8083329999999997,-0.9833333999999999,1
167859,-0.01269531,1.084473,-0.43505859999999996,2.319336,13.06152,10.43701,96.95435,-6.954346,82.66663,22.06667,4.383333,-1.841667,1
168069,0.5625,1.050293,0.08886719,7.995605,35.7666,2.807617,97.08618,-11.16211,84.27612,13.29167,-0.05,0.36666669999999996,1
168289,-0.12255859999999999,0.8706054999999999,-0.1772461,-5.004883,-5.249023,22.3999,96.84448,-7.547607,89.80774,33.85833,-94.79166,23.13333,1
168519,0.5004883,1.079102,0.2651367,3.112793,7.507324,-30.27344,99.22302,-5.641479,86.79199,18.3,-0.1916667,0.6416666999999999,1
168779,0.06298828000000001,0.8574219,-0.144043,-4.089355,8.850098,7.385254,97.32788,-8.882446,85.84167,17.56667,-3.258333,-0.08333334,1
169079,0.22509769999999998,1.194336,-0.3852539,21.48438,23.37646,19.9585,97.97607,-7.23999,87.53906,17.00833,5.6,-4.666667,1
169299,0.007324219000000001,0.7846679999999999,-0.02197266,9.033203,6.896973,-33.38623,95.96008,-9.552612,90.76355,34.1,-95.34167,24.08333,1
169609,0.09912109000000001,1.347168,-0.46679689999999996,25.08545,-27.9541,-27.09961,99.11865,-8.009033,88.49487,12.21667,5.733333,-3.05,1
169909,0.1884766,0.7719727,0.02539063,0.06103516,4.699707,31.79932,95.46021,-7.558594,84.6167,31.25833,-94.45,23.03333,1
170209,0.31005859999999996,1.347168,-0.09423828000000001,27.16064,3.78418,22.52197,95.87769,-8.399048,87.05566,13.78333,4.3,-3.35,1
170509,0.006347656,0.8383788999999999,-0.05322266,21.72852,21.72852,-26.61133,95.18555,-8.811035,92.4939,35.59167,-94.94167,23.55,1
170809,0.3945313,1.707031,0.1298828,25.39063,-12.20703,-36.01074,98.42102,-7.141113,91.39526,36.45,-95.725,24.65,1
171089,0.40283199999999997,0.8271484,-0.0234375,-4.150391,-27.22168,21.66748,97.40479,-5.405273,87.33032,14.44167,-1.608333,0.8250000000000001,1
171329,-0.07128906,1.231934,-0.527832,15.01465,15.74707,5.92041,97.8717,-7.459717,90.70862,23.31667,5.9,-5.191667,1
171639,-0.07275391,0.8471679999999999,-0.060546880000000004,-0.24414059999999999,0.8544921999999999,-32.40967,97.88269,-9.887695,94.61426,14.325,-3.275,-0.5,1
171979,-0.041015630000000004,1.358887,-0.4023438,33.5083,-24.41406,-22.58301,100.3931,-7.816772,92.78503,13.91667,5.766667,-3.05,1
172179,0.10107419999999999,0.9946288999999999,-0.08154297,-6.408691,-28.25928,22.82715,99.47021,-3.7133789999999998,87.9895,14.60833,-0.1833333,0.675,1
172400,0.3867188,1.057617,-0.08154297,-8.972168,-10.00977,-18.24951,97.20154,-7.382813,88.12134,34.40833,-96.225,22.68333,1
172669,0.16601559999999999,0.6118163999999999,0.2397461,-7.141113,-5.92041,2.990723,96.84998,-11.14563,86.91284,15.525,1.358333,4.316667,1
172909,0.05126953,0.8203125,-0.1201172,25.57373,39.91699,-30.39551,96.26221,-9.541626,92.17529,13.15833,-3.125,-1.375,1
173119,-0.24853519999999998,1.57959,-0.02832031,9.033203,-2.990723,-19.28711,98.88794,-6.108398,96.15234,40.30833,-97.45834,24.86667,1
173369,0.2519531,0.7182617,0.002441406,-11.90186,-41.3208,32.10449,97.54761,-3.515625,90.38452,14.6,-1.341667,0.7333333,1
173619,0.09423828000000001,1.214355,-0.2529297,21.11816,0.42724609999999996,0.6103516,96.36658,-6.7236329999999995,87.72034,34.35833,-96.23333,22.0,1
173890,0.46728519999999996,1.019531,0.14257809999999999,-0.7324219,13.00049,20.32471,95.85571,-10.41504,85.7428,14.825,-0.7083332999999999,2.608333,1
174129,-0.02587891,0.8784179999999999,-0.16699219999999998,-20.69092,10.13184,9.094238,96.8335,-6.756592,95.71289,39.09167,-96.69167,23.35833,1
174439,-0.21337889999999998,1.083496,-0.03076172,-7.446289,-51.14746,4.455566,98.65173,-2.801514,91.68091,12.65,0.55,0.7916667,1
174739,0.27050779999999996,0.9443359,-0.21337889999999998,9.277344,14.28223,-18.49365,96.80603,-6.437988,86.53381,34.53333,-96.375,22.44167,1
175039,0.05029297,0.9370117,-0.07910156,10.37598,64.51416,-17.33398,97.37732,-11.53564,90.09338,34.075,-96.71667,23.2,1
175309,0.007324219000000001,0.8330078,-0.2041016,-18.24951,17.63916,6.896973,97.10815,-8.21228,95.42175,19.225,-3.783333,0.2916667,1
175559,-0.2265625,1.055664,0.15625,-22.03369,-19.65332,-13.12256,97.57507,-4.312134,93.92761,11.31667,0.275,-2.3,1
175869,0.1635742,0.8481445,-0.1630859,-6.103516,5.126953,-24.04785,95.3064,-7.805786,91.55457,20.85,-8.466666,0.5750000000000001,1
176169,0.3920898,0.9511719,0.1074219,-4.272461,45.16602,1.586914,95.10864,-10.82153,95.68542,14.25,0.15,1.225,1
176509,-0.1103516,0.9233397999999999,-0.13916019999999998,-6.652832,-3.845215,23.37646,94.88342,-8.10791,101.8542,22.55,-4.208333,3.266667,1
176749,0.03808594,0.8505859,-0.01367188,-14.34326,-37.90283,11.1084,96.41602,-3.619995,96.61377,41.04167,-96.025,22.19167,1
176989,0.1176758,0.8969727,-0.1118164,-14.09912,-14.09912,6.04248,95.49316,-8.261719,93.60901,17.45833,-2.9333329999999997,-0.4,1
177229,-0.02539063,0.9824219,0.17822269999999998,-14.09912,3.540039,11.84082,96.08093,-8.970337,90.3241,34.875,-95.89167,20.98333,1
178579,0.04541016,0.8500977,-0.09277344,13.24463,41.1377,-21.05713,98.75061,-10.39307,96.60828,39.13334,-98.11667,25.79167,1
178819,-0.0625,0.8974609,-0.1875,-18.49365,13.00049,18.55469,98.2782,-8.432007,102.0245,22.23333,-7.716667,3.083333,1
179039,0.37939449999999997,1.125,0.21386719999999998,3.112793,3.723145,-17.82227,99.59106,-6.339111,101.9696,20.56667,-0.09166667,-1.691667,1
179249,0.2592773,0.8437500000000001,-0.004394531,-5.737305,-5.493164,22.70508,98.21777,-6.069946,99.9646,14.55833,-1.925,-1.375,1
179459,0.07128906,1.173828,-0.4174805,18.67676,-5.737305,12.93945,97.60803,-6.322632,100.7501,15.89167,4.625,-5.041667,1
179769,-0.04248047,0.8710937999999999,-0.08789063,2.563477,-10.37598,-38.08594,98.39905,-8.679199,102.9913,42.325,-97.05833,26.06667,1
180079,0.2109375,1.547363,-0.07861328000000001,20.56885,-34.42383,-22.94922,99.98108,-6.514893,99.08569,15.40833,2.941667,-1.408333,1
180379,0.1323242,0.9487304999999999,-0.11279299999999999,-5.065918,5.92041,27.58789,97.83875,-6.311646,91.38428,36.575,-95.775,22.35833,1
180669,0.1762695,1.775391,0.17382809999999999,8.972168,-2.990723,37.35352,98.90442,-7.036743,93.18604,37.01667,-95.68333,21.9,1
180949,0.04736328,0.8969727,-0.0004882813,8.117676,6.896973,-24.29199,96.56433,-9.146118,95.24048,15.35,-1.741667,1.375,1
181199,0.3110352,1.1166989999999999,-0.37207029999999996,36.68213,-5.737305,-1.89209,97.24548,-7.300415,93.54858,17.925,4.125,-2.15,1
181499,0.2509766,0.7353516,-0.002441406,3.601074,-6.835938,34.729,98.32764,-4.746094,88.48389,15.725,-3.35,-0.01666667,1
181839,0.1191406,1.063965,-0.48242189999999996,20.75195,11.71875,18.73779,99.71741,-6.855469,88.40698,17.75,3.241667,-4.308333,1
182040,0.3925781,0.9814453,-0.07910156,15.31982,71.3501,-20.32471,99.37134,-10.74463,91.15906,11.91667,-0.225,1.5833329999999999,1
182259,0.041015630000000004,1.043457,-0.1489258,5.126953,-38.39111,7.873535,98.25623,-9.898681999999999,96.44348,37.7,-97.96667,23.9,1
182499,-0.009277344,0.9287109,0.09277344,-22.03369,5.7983400000000005,-29.11377,100.1733,-5.482178,93.7738,13.2,-0.6000000000000001,-1.1,1
182769,0.1889648,0.9257812999999999,-0.10058589999999999,6.774902,35.46143,27.52686,99.32739,-7.750854,93.43872,13.866670000000001,-2.566667,-2.875,1
182979,0.4145508,1.513184,-0.02441406,5.004883,-1.464844,28.32031,99.21204,-8.865967,96.64673,37.84167,-97.36667,23.975,1
183239,-0.02294922,0.9160155999999999,-0.06982422,11.16943,26.00098,-21.3623,97.54211,-11.14014,99.87122,15.5,-2.191667,2.316667,1
183479,-0.007324219000000001,0.8110352,-0.15039059999999999,-22.46094,11.65771,7.873535,98.25073,-7.536621,101.8652,21.10833,-4.25,2.65,1
183689,-0.1884766,1.100098,0.02441406,-16.47949,-48.76709,-12.3291,99.77783,-3.669434,98.86597,13.175,0.65,-0.35833329999999997,1
183989,0.030273440000000002,0.8886719,-0.15087889999999998,-1.464844,-13.5498,15.07568,98.16284,-7.58606,93.35083,15.55,-2.8083329999999997,-2.183333,1
184209,-0.20996089999999998,1.261719,0.2084961,-27.83203,15.01465,34.30176,99.28345,-7.965088,92.90039,31.975,-95.06667,22.98333,1
184489,0.08935547,0.8896484,-0.18652339999999998,-10.92529,-4.150391,-10.19287,98.57483,-5.910645,97.60803,35.93333,-95.025,24.85833,1
184789,-0.006835938000000001,1.297852,-0.31787109999999996,17.02881,-33.14209,-16.96777,98.18481,-6.998291,95.00427,13.991670000000001,4.891667,1.208333,1
185019,0.2988281,0.824707,-0.002929688,7.8125,17.15088,29.29688,96.99829,-5.707397,86.10535,30.3,-92.775,24.85833,1
185309,0.5922852,1.400391,-0.08789063,35.33936,10.98633,15.80811,98.25073,-6.92688,89.78577,11.09167,5.391667,-0.6000000000000001,1
185649,0.0,0.9023437999999999,-0.07128906,9.521484,-8.361816,-21.78955,97.43774,-7.89917,97.50366,15.05833,-2.883333,-3.966667,1
185919,-0.002441406,1.705566,-0.05615234,-5.249023,-34.05762,-16.41846,98.10242,-7.086182,93.79578,14.31667,3.3,0.1,1
186289,0.09082031,0.9462891,-0.1689453,4.089355,26.06201,25.32959,97.61353,-7.591553,92.24121,14.65833,-3.683333,-2.083333,1
186489,0.3125,1.6538089999999999,0.08789063,33.75244,10.37598,35.27832,99.25049,-8.031006,93.25745,34.81667,-94.9,26.125,1
186739,-0.01171875,0.8618163999999999,-0.03222656,19.04297,25.81787,-18.31055,97.88818,-10.07446,100.1294,15.55833,-2.675,-0.5166666999999999,1
187009,-0.02929688,0.8925780999999999,-0.1557617,-19.22607,9.216309,20.93506,97.65198,-7.866211,102.3981,18.44167,-6.133333,2.616667,1
187229,-0.12695309999999999,1.063477,0.105957,1.342773,-44.73877,-10.00977,98.16833,-3.80127,95.42175,14.78333,-0.1083333,-0.8333332999999999,1
187489,0.1484375,0.8999022999999999,-0.1303711,-7.629395,11.84082,20.44678,97.72339,-7.3718259999999995,91.39526,14.2,-3.25,-1.383333,1
187709,-0.01904297,1.178711,-0.3984375,14.03809,8.117676,-1.953125,97.56409,-6.553345,93.40027,23.64167,1.891667,1.691667,1
187929,-0.02978516,0.9423828,-0.06738281,15.68604,27.70996,-24.4751,98.28918,-9.7229,100.5194,15.34167,-3.275,0.2916667,1
188229,0.15917969999999998,1.1010739999999999,-0.4311523,26.67236,-9.094238,-5.7983400000000005,98.14087,-7.717896,101.8707,42.54167,-96.84167,25.20833,1
188689,0.1640625,0.8925780999999999,-0.1635742,-8.789063,-4.333496,12.69531,98.21228,-7.042236,91.90063,13.9,-1.875,-0.8833333,1
188929,-0.03076172,1.023926,0.1259766,-17.57813,-14.5874,19.9585,98.98132,-8.739624,92.91687,36.65,-96.93333,22.66667,1
189199,-0.046875,0.9145508,-0.06396484,5.615234,20.56885,-17.33398,98.12988,-9.926147,99.19556,15.21667,-2.383333,-1.175,1
189469,0.2246094,1.106934,-0.42041019999999996,22.27783,-12.3291,-8.422852,97.91565,-9.234009,96.38306,21.375,3.0,0.04166667,1
189739,0.3129883,0.8452147999999999,-0.03613281,-4.150391,0.24414059999999999,23.19336,97.33337,-5.844727,96.07544,39.79167,-97.30833,22.41667,1
190019,0.19433589999999998,0.8105469,-0.17431639999999998,-9.94873,7.995605,-21.48438,96.95435,-8.66272,98.40454,18.1,-7.933333,0.975,1
190269,0.6801758,1.039063,0.05371094,12.87842,45.59326,-17.27295,98.30017,-11.58508,104.6338,14.38333,-0.4583333,-0.48333329999999997,1
190569,-0.03417969,0.7802734,-0.1479492,-16.41846,-17.7002,30.27344,97.33337,-8.503418,109.4183,19.34167,-8.3,3.958333,1
190939,0.25439449999999997,0.8627929999999999,-0.04638672,-6.164551,2.807617,26.97754,99.0033,-6.49292,101.7114,42.525,-98.425,25.36667,1
191199,0.30175779999999996,0.8496094,-0.1728516,-10.74219,11.77979,-24.96338,97.72339,-8.805541999999999,104.3427,18.95833,-8.508333,4.483333,1
191449,0.3901367,1.000977,-0.060546880000000004,9.338379,49.80469,-17.39502,98.94287,-12.42554,110.105,43.575,-99.64167,27.74167,1
191689,0.0004882813,0.8378905999999999,-0.203125,-18.49365,9.521484,-4.760742,99.69543,-8.536377,114.9939,16.825,-2.116667,2.416667,1
191929,0.4067383,1.760254,-0.008789063,17.02881,-8.422852,-31.49414,101.7499,-7.893677,112.5714,19.025,1.008333,0.4333333,1
192149,0.1113281,0.9316405999999999,-0.1333008,5.004883,24.90234,20.1416,100.2557,-8.629761,111.3684,14.15833,-2.875,-1.641667,1
192459,-0.1762695,1.581543,0.1445313,10.43701,7.507324,41.87012,102.4915,-10.27222,118.2184,47.40833,-100.7083,32.925,1
192769,0.1455078,0.8481445,-0.18261719999999998,4.089355,-2.502441,-14.5874,100.6238,-9.085693,124.3048,14.475,-2.158333,-3.1,1
193069,0.2836914,1.3510739999999999,0.1152344,7.629395,-10.80322,-30.51758,100.3217,-7.459717,123.2007,52.35,-99.21667,33.025,1
193369,0.1445313,0.934082,-0.1435547,1.89209,20.69092,20.50781,100.0085,-8.76709,120.498,49.46667,-99.85,32.26667,1
193639,-0.04199219,1.09082,-0.3305664,2.685547,-2.746582,5.92041,98.70667,-8.031006,120.119,25.44167,-0.1166667,-0.7583333,1
193879,0.008789063,0.8417969,-0.04931641,16.96777,58.10547,-27.83203,99.10767,-11.90369,128.7103,51.71667,-100.3917,36.64167,1
194179,0.002441406,1.100098,-0.5024413999999999,12.39014,-13.91602,-10.37598,99.83276,-10.77759,134.1156,22.93333,4.6,2.441667,1
195599,0.38037109999999996,0.8984375,-0.06103516,-7.751465,-31.67725,29.23584,99.48669,-3.290405,125.6396,15.28333,-1.083333,-0.075,1
195899,0.3081055,1.003906,-0.125,4.699707,5.737305,-25.20752,97.1521,-6.888428,125.5627,22.53333,-1.066667,4.833333,1
196199,-0.05126953,0.9931641,-0.05957031,13.18359,25.5127,-20.1416,99.59106,-9.959106,130.9406,14.90833,-2.025,2.625,1
196569,0.06738281,1.585938,0.21289059999999999,20.1416,-24.78027,-43.33496,101.5521,-5.855713,129.5123,54.03333,-98.325,36.50834,1
196829,0.3632813,0.809082,-0.01025391,8.483887,-15.74707,29.11377,100.6842,-4.0979,123.8269,16.05833,-2.283333,-0.7583333,1
197079,-0.02832031,1.124512,-0.4057617,4.699707,-9.94873,6.530762,99.68445,-5.949097,122.7942,49.99166,-98.49167,32.95,1
197319,0.5507813,1.102051,0.06787109,5.065918,38.81836,2.13623,99.43176,-10.75562,123.4424,13.95,0.1166667,0.48333329999999997,1
197559,0.1210938,0.824707,-0.1533203,-5.554199,6.896973,-10.92529,99.73938,-7.454224,128.1281,15.34167,-3.458333,-2.733333,1
197769,0.5795897999999999,1.635254,0.265625,36.07178,-6.347656,-36.56006,100.1239,-5.817261,125.7605,52.90833,-98.4,35.34167,1
198019,0.30908199999999997,0.8461913999999999,0.009277344,-9.765625,-0.5493163999999999,20.32471,98.54187,-4.372559,122.1075,16.3,-1.341667,-2.333333,1
198299,0.08300781,0.7993163999999999,-0.1831055,-2.868652,14.34326,-15.93018,96.31714,-8.822021,126.5625,18.55,-6.55,1.608333,1
198540,0.4291992,0.9042969,-0.01855469,13.85498,54.19922,-6.469727,99.75586,-11.79932,130.8856,11.525,-0.9333332999999999,0.5666667,1
198779,-0.03417969,0.8544921999999999,-0.1831055,-16.78467,26.67236,-2.502441,100.3711,-8.206787,138.2135,18.31667,-2.458333,1.983333,1
198999,0.08007813,0.8916016,0.1113281,-26.7334,-23.25439,-28.07617,102.1399,-4.273682,137.2467,59.4,-98.05,41.90833,1
199269,0.105957,0.9160155999999999,-0.11083979999999999,-2.685547,-1.342773,27.771,101.3324,-6.773071,130.1935,14.36667,-2.575,-3.4,1
199509,0.18261719999999998,1.4887700000000001,-0.09228516,27.16064,-4.638672,26.24512,102.1344,-7.234497,129.4739,54.19167,-99.825,38.525,1
199819,0.1479492,0.8842772999999999,-0.1713867,5.493164,-13.30566,-25.57373,101.8048,-7.245483,134.588,14.925,-3.541667,-3.308333,1
200119,0.21386719999999998,1.487793,0.02734375,-7.69043,-26.00098,-23.19336,101.1072,-6.366577,132.2369,56.76667,-98.71667,39.01667,1
200429,0.15869139999999998,0.9560546999999999,-0.1577148,-2.075195,4.272461,23.25439,100.1184,-7.662964,127.6117,13.85,-2.95,-2.466667,1
200759,0.022460940000000002,1.425293,0.2983398,17.82227,13.06152,26.85547,101.2885,-8.668213,130.6384,18.95,0.1083333,3.416667,1
201069,0.1259766,0.8579102,-0.1533203,-3.845215,18.73779,-17.08984,100.1624,-7.250977,138.0981,13.925,-3.541667,-1.483333,1
201310,0.4052734,1.016602,0.2158203,3.112793,-21.54541,-32.89795,101.5466,-5.081177,138.0103,59.9,-97.99167,41.73333,1
201549,0.2070313,0.8422852,-0.07128906,4.882813,4.821777,31.31104,101.1401,-5.344849,131.9678,15.23333,-2.416667,-2.683333,1
201789,0.3125,0.9731445,-0.1796875,6.469727,-4.150391,-26.55029,99.87122,-6.146851,131.9623,20.325,-4.658333,1.883333,1
201999,0.31787109999999996,0.9897461,-0.020996090000000002,17.51709,43.27393,-6.164551,100.0964,-10.23376,134.3243,54.71667,-100.1833,39.375,1
202249,0.1176758,0.8759766,-0.1992188,-10.92529,7.324219,-6.713867,101.5082,-6.877441,138.4991,16.89167,-3.541667,-1.675,1
202529,0.02392578,1.107422,-0.4619141,21.85059,-29.72412,-15.44189,100.9039,-7.322388,136.615,18.25833,4.925,-0.008333334000000001,1
202749,0.1879883,0.918457,-0.07177734,-6.347656,23.74268,26.00098,101.4313,-5.663452,131.5833,15.19167,-2.508333,-1.283333,1
203009,0.2666016,0.8852538999999999,-0.1757813,-0.1831055,8.300781,-21.72852,99.38232,-6.707153,134.1705,20.55833,-4.0,2.633333,1
203229,0.07373047,0.9428711,-0.07568359,1.708984,56.64063,-11.59668,100.8215,-11.61255,139.2352,55.05833,-100.8667,44.175,1
203509,0.03710938,0.8793945,-0.1655273,-14.77051,8.361816,-2.01416,101.0468,-7.844238,143.2288,17.1,-2.491667,-0.008333334000000001,1
203749,0.33398439999999996,1.100586,0.15087889999999998,6.103516,-16.47949,-19.28711,102.6123,-5.174561,137.4719,58.93333,-98.91666,43.65,1
204049,0.1171875,0.9580078,-0.144043,-14.34326,12.26807,5.310059,101.3599,-7.426758,133.775,15.04167,-2.316667,-0.8583333999999999,1
204359,0.07226563,1.27002,-0.05224609,-4.150391,13.97705,16.6626,100.0854,-7.146606,139.2572,14.23333,2.65,0.09166667,1
204669,0.105957,0.9838867,-0.06005859,-1.159668,-19.47021,-14.83154,100.9863,-8.87146,141.3391,15.23333,-2.341667,-1.541667,1
204999,0.09765625,0.965332,-0.2480469,-3.173828,-70.80078,2.01416,99.67346,-7.981567,131.1658,22.175,-1.175,-0.4666667,1
205309,0.3930664,0.9648437999999999,-0.02197266,-0.7324219,-31.12793,19.77539,97.70142,-4.707642,113.8184,16.75,-2.333333,-0.55,1
205539,0.2519531,0.8857421999999999,-0.15625,-6.469727,-64.5752,-7.751465,96.94336,-6.399536,100.882,43.94167,-99.175,25.23333,1
205789,0.09423828000000001,1.1533200000000001,0.05859375,-13.73291,-25.57373,2.685547,96.5863,-5.037231,90.65918,12.85,2.133333,-1.95,1
206029,0.1113281,1.162598,-0.0625,-9.155273,-73.30322,0.793457,94.6582,-4.564819,78.75549,18.675,-1.891667,-3.525,1
206239,0.1254883,1.00293,-0.1542969,-13.30566,-132.2021,-17.33398,88.50586,-0.6481933999999999,43.36304,15.5,-93.3,19.68333,1
206479,-0.009277344,0.9550780999999999,-0.2265625,-6.04248,-141.6626,-6.896973,87.12158,0.5657959,16.97937,22.575,1.283333,0.48333329999999997,1
206759,-0.05810547,0.9174804999999999,0.01416016,0.12207029999999999,-120.2393,12.02393,87.40173,-1.263428,-9.61853,18.625,-2.625,2.241667,1
206969,0.40478519999999996,0.9038086,-0.19824219999999998,-24.84131,-98.93799,16.60156,90.54932,-8.415527,-40.49561,15.61667,-2.358333,-4.533333,1
207249,0.152832,1.3354489999999999,-0.05078125,0.9765625,-45.95947,30.70068,89.53857,-11.1731,-51.84448,-3.025,-88.41666,70.45,1
207549,-0.02587891,0.8779296999999999,0.10839839999999999,13.12256,27.16064,-21.85059,88.76953,-9.915161,-49.80652,15.7,-1.7,2.825,1
207799,-0.05029297,1.003906,-0.1201172,6.774902,-31.98242,12.146,89.59351,-8.388062,-44.06616,24.90833,-1.441667,2.65,1
208069,0.3037109,0.9550780999999999,-0.03125,3.356934,-24.04785,14.22119,93.24097,-4.702148,-48.97156,0.2833333,-90.53333,71.31667,1
208339,0.1308594,0.8964844,-0.144043,-15.13672,-2.380371,-1.281738,93.24097,-8.503418,-48.75183,18.46667,-2.666667,0.9416667,1
208579,0.3129883,0.8164062999999999,0.2353516,-6.713867,47.48535,12.20703,95.14709,-10.61829,-44.33533,-4.383333,-86.66666,69.70834,1
208889,0.0009765625,0.8740234,-0.1459961,-24.4751,-9.70459,10.37598,94.63074,-7.509155,-39.97375,20.225,-2.558333,1.466667,1
209229,-0.01416016,1.030762,0.1030273,-8.911133,-20.99609,-22.76611,96.66321,-4.751587,-45.81299,14.79167,-1.25,1.85,1
209509,0.09570313,0.8037109,-0.20605469999999998,-20.1416,-9.82666,-10.98633,96.27869,-8.404541,-46.4502,19.64167,-5.5,0.5333333,1
209869,-0.1015625,1.056152,-0.1552734,10.74219,33.75244,-21.60645,97.78931,-11.03027,-42.60498,-4.866667,-85.25,70.98333,1
210129,0.0004882813,0.7436522999999999,-0.15917969999999998,-29.35791,-7.995605,10.98633,96.20178,-7.789307,-42.27539,20.23333,-6.916667,1.741667,1
210379,0.4614258,1.434082,0.08251953000000001,2.502441,9.94873,-57.61719,99.20654,-4.509888,-44.5166,18.45833,-0.5666667,-2.591667,1
210589,0.09570313,0.8725586,-0.21435549999999998,-7.385254,-21.91162,19.16504,97.84973,-7.421265,-50.4657,-0.625,-87.625,74.35,1
210839,0.05712891,1.05957,-0.3823242,4.516602,2.01416,9.643555,96.84998,-5.74585,-54.44275,30.69167,3.633333,4.825,1
211069,0.022460940000000002,0.8789062999999999,-0.01904297,2.685547,4.760742,-18.24951,96.62476,-9.382324,-48.6145,-2.383333,-86.85833,72.23333,1
212419,-0.030273440000000002,0.9125977,-0.175293,-34.24072,14.95361,-3.723145,97.93213,-6.860962,-39.38049,-3.116667,-88.69167,66.03333,1
212679,-0.2724609,1.142578,0.09326172,2.563477,-60.72998,-16.05225,99.67896,-2.823486,-43.34656,0.7416667,-90.375,70.825,1
212969,0.12060549999999999,1.015625,-0.2226563,4.272461,7.263184,19.83643,99.82178,-5.679932,-50.0647,13.24167,-3.158333,-4.15,1
213219,0.1401367,1.475586,0.15136719999999998,-10.37598,5.67627,29.96826,99.90417,-7.89917,-49.0155,-2.075,-87.18333,71.25833,1
213489,0.1416016,0.9179687999999999,-0.1542969,-2.746582,-28.32031,-33.56934,99.44824,-5.548096,-42.06665,-0.7333333,-89.44167,68.58334,1
213789,0.078125,1.092285,-0.5893554999999999,30.88379,0.0,-9.94873,100.5743,-5.740356,-44.90112,15.725,4.766667,-3.266667,1
214029,0.13916019999999998,0.7592772999999999,-0.03759766,-2.502441,-13.97705,35.33936,99.90417,-3.90564,-55.50293,14.85833,-3.116667,-3.925,1
214309,0.3696289,1.369629,-0.2109375,27.58789,-9.82666,25.02441,101.3599,-6.481934,-55.59631,2.7,-87.675,75.54166,1
214619,-0.1000977,0.918457,-0.06152344,1.7700200000000001,41.99219,-23.07129,99.55811,-10.90942,-51.38306,14.21667,-1.95,0.5750000000000001,1
214859,0.2070313,1.131836,-0.2651367,13.12256,-27.9541,8.789063,99.35486,-7.959595,-51.92139,25.25833,3.075,-0.7166667,1
215129,0.34375000000000006,0.7421875,-0.01757813,-20.32471,-7.629395,24.16992,100.1569,-3.279419,-58.72192,15.80833,-3.183333,0.625,1
215499,-0.03710938,1.557129,0.1489258,-2.685547,-15.01465,54.87061,100.7941,-8.76709,-55.34912,2.141667,-87.30833,76.06667,1
215769,-0.08349609,0.8417969,-0.03369141,2.380371,14.5874,-24.53613,98.50342,-9.904175,-50.13062,15.9,-2.666667,-0.05833333,1
216009,0.0234375,0.8525391,-0.19824219999999998,-22.88818,3.112793,21.85059,98.21228,-6.487427,-51.69067,18.3,-7.508333,2.108333,1
216219,-0.2280273,1.161133,0.022460940000000002,1.6479489999999999,-51.57471,-7.141113,100.5139,-3.208008,-55.73914,5.283333,-89.35833,78.09167,1
216459,0.08935547,0.9414062999999999,-0.2114258,-9.460449,-0.24414059999999999,17.15088,100.5359,-7.053223,-60.49072,14.79167,-3.441667,-1.0,1
216709,0.1079102,0.8813477,0.2431641,-33.81348,9.887695,28.44238,100.5688,-10.49744,-57.46948,0.15,-86.025,76.76667,1
216959,-0.0078125,0.8100586,-0.007324219000000001,10.19287,-1.7700200000000001,-27.34375,98.01453,-9.799805,-51.14685,15.15,-3.075,-0.875,1
217229,-0.06201172,0.9584961,-0.23681639999999998,-5.493164,-12.93945,20.87402,97.97058,-8.937378,-51.08643,20.09167,-6.483333,0.5,1
217439,-0.06201172,0.9584961,-0.23681639999999998,-5.493164,-12.93945,20.87402,97.97058,-8.937378,-51.08643,17.74167,-0.3916667,0.2916667,1
217659,0.1728516,0.8730469,-0.16601559999999999,-18.73779,6.225586,4.089355,97.60803,-7.514648,-59.60632,17.40833,-2.733333,1.8,1
217929,0.253418,0.8212891,0.1875,9.643555,22.76611,9.460449,99.17908,-9.882202,-57.51343,-0.275,-86.5,75.86667,1
218199,0.1210938,0.8671875,-0.128418,8.911133,-13.85498,-28.68652,99.51416,-8.349609,-53.62976,13.69167,-1.158333,-5.133333,1
218439,0.2104492,1.374512,0.1308594,-0.3662109,-9.155273,-35.40039,100.1788,-5.844727,-59.58435,4.066667,-88.94167,77.76667,1
218759,0.078125,0.9707030999999999,-0.14257809999999999,-5.615234,1.89209,27.34375,99.09668,-6.410522,-66.68152,13.48333,-3.008333,-2.558333,1
219089,0.1542969,1.5908200000000001,0.08447266,14.83154,12.20703,34.30176,99.03625,-7.487183,-66.06628,17.15,2.233333,0.9416667,1
219369,0.13476559999999999,0.9165038999999999,-0.1831055,16.17432,-3.845215,-25.02441,98.60229,-6.61377,-60.51819,15.58333,-3.275,-3.625,1
219749,-0.1196289,1.324219,-0.1264648,-0.5493163999999999,-24.04785,10.68115,100.7941,-2.49939,-63.29224,14.025,-1.466667,-1.908333,1
220029,0.2104492,0.8837891,-0.17382809999999999,-15.68604,-3.112793,11.04736,100.2722,-5.998535,-67.59888,14.95,-2.508333,-2.1,1
220249,0.1889648,1.150391,-0.34375000000000006,18.18848,-11.35254,17.27295,99.42078,-4.806519,-68.02734,14.90833,5.916667,-4.525,1
220459,0.08105469,0.8188477,-0.07666016,12.75635,7.446289,-33.5083,99.78333,-7.223511,-64.80835,4.633333,-88.26667,79.875,1
220699,-0.08056641,0.8740234,-0.20556639999999998,-0.7324219,-22.58301,16.78467,99.87671,-6.130371,-64.81934,18.05,-7.45,0.7916667,1
220939,-0.1723633,1.317871,-0.1479492,8.361816,-45.95947,14.77051,102.6178,-1.483154,-73.15796,11.225,-89.025,84.475,1
221189,0.13476559999999999,0.9423828,-0.2270508,-17.51709,24.16992,12.146,103.3264,-5.723877,-75.32227,13.775,-4.241667,-2.633333,1
221470,0.06689453000000001,0.918457,0.1870117,-27.70996,9.033203,8.972168,100.4425,-7.750854,-74.88281,6.433333,-87.66666,82.63333,1
221779,0.02148438,0.7880859,-0.2260742,-10.80322,-7.202148,-2.197266,101.6895,-4.779053,-71.60889,19.175,-3.091667,0.725,1
222109,-0.02001953,1.004395,0.1025391,-26.9165,-23.92578,-19.28711,103.4418,-1.6754149999999999,-79.75525,14.06667,-2.058333,-3.325,1
222379,0.22900389999999998,0.8759766,-0.21875000000000003,-18.00537,-13.12256,0.9155272999999999,100.8929,-5.449219,-87.52258,16.85833,-3.991667,-0.08333334,1
222679,-0.09521484000000001,0.8310546999999999,0.2163086,-37.53662,15.31982,45.53223,99.99207,-8.756104,-84.85291,11.15833,-87.1,85.275,1
222979,0.04541016,0.8837891,-0.2358398,-22.76611,7.69043,-5.67627,98.97034,-6.091919,-80.16724,11.2,-88.975,82.40833,1
223249,0.1474609,1.540527,0.20166019999999998,6.713867,-25.20752,-31.31104,100.0305,-5.872192,-80.37598,20.13333,1.841667,0.2583333,1
223499,0.1630859,0.9267578,-0.140625,-1.89209,16.47949,17.45605,99.95911,-6.157837,-84.51782,13.04167,-3.741667,-1.45,1
223809,-0.05517578,1.827148,0.2202148,17.21191,5.493164,61.09619,102.0081,-8.256226,-84.87488,20.025,-0.15,-0.3916667,1
224109,0.10839839999999999,0.8632812999999999,-0.17480469999999998,-0.6103516,-16.60156,-14.09912,100.9039,-7.377319,-82.00195,12.66667,-3.608333,-2.5,1
224449,0.1713867,0.9819336,0.1025391,-1.220703,-1.098633,-46.875,101.5356,-3.532104,-84.21021,17.525,0.7666666999999999,-0.45,1
224689,0.06835938,0.9003905999999999,-0.1831055,-14.28223,8.789063,7.080078,99.31641,-7.036743,-84.19373,15.275,-88.19167,81.225,1
224929,0.2832031,1.01709,-0.3603516,25.93994,19.89746,-2.807617,99.62952,-5.734863,-82.0459,11.05,4.633333,-5.258333,1
225169,0.1308594,0.793457,-0.05078125,7.751465,-18.06641,-26.18408,100.4041,-7.536621,-78.349,13.80833,-86.925,80.75833,1
225409,-0.06640625,0.9868163999999999,-0.1650391,-1.098633,-28.13721,19.104,99.3988,-6.383057,-80.29907,21.85,-6.45,0.9416667,1
225689,0.08349609,0.6953125,0.23632809999999999,-21.3623,-17.8833,-13.5498,101.3159,-2.373047,-83.58398,15.675,-0.725,0.17500000000000002,1
225909,0.1074219,0.9052734,-0.1962891,-18.37158,-9.82666,3.234863,100.7611,-6.036987,-86.36353,18.88333,-88.06667,81.88333,1
226189,0.4086914,0.9267578,0.14306639999999998,-4.394531,37.35352,7.568359,100.3711,-10.34363,-85.5011,14.79167,-86.4,81.325,1
226479,0.1020508,0.8544921999999999,-0.1210938,15.19775,-2.319336,-25.81787,100.5634,-8.833008,-79.21143000000001,15.06667,-3.383333,-3.941667,1
226729,0.3120117,1.481934,0.2563477,19.40918,-2.075195,-40.1001,102.5354,-4.888916,-80.34302,20.01667,-0.75,-2.608333,1
226999,0.12255859999999999,0.8432617,-0.09130859,-20.26367,11.47461,6.04248,100.3546,-6.157837,-86.03394,17.98333,-89.08334,82.425,1
227299,0.07617188,1.062012,-0.4257813,8.911133,-4.455566,10.92529,99.77234,-5.125122,-85.32532,15.95833,5.091667,-4.916667,1
227539,0.05371094,0.7607421999999999,-0.02050781,1.525879,-29.47998,-30.70068,100.036,-7.223511,-85.0946,14.6,-2.575,-3.6,1
227809,-0.01367188,1.338379,-0.33349609999999996,12.75635,-28.32031,-16.35742,101.64,-5.773315,-89.86816,19.25833,-89.625,84.94167,1
228099,0.1357422,0.8393554999999999,-0.08300781,2.075195,22.64404,25.02441,101.4807,-3.751831,-97.80029,22.46667,-89.64167,86.825,1
229509,0.2670898,1.070801,-0.2558594,20.75195,16.60156,-10.00977,98.4375,-4.658203,-93.98804,19.33333,-91.36667,84.98333,1
229839,0.03808594,0.9233397999999999,-0.04931641,5.249023,30.33447,-14.4043,99.245,-10.93689,-84.97375,16.25833,-2.266667,-0.9916666999999999,1
230099,0.028808590000000002,0.7963867,-0.1879883,-21.42334,5.371094,19.83643,97.64648,-7.827759,-83.62244,18.31667,-7.725,2.85,1
230319,-0.01416016,1.12207,-0.01367188,-5.981445,-24.23096,-2.258301,100.3326,-3.872681,-84.88586,16.45833,-89.95834,84.5,1
230559,0.09228516,0.8447266,-0.14306639999999998,-25.87891,-2.258301,2.563477,99.53613,-7.009277,-87.14905,16.2,-2.516667,-0.125,1
230799,-0.04638672,1.018066,0.2871094,-22.33887,15.31982,29.72412,100.8545,-9.360352,-87.08862,13.63333,-88.00833,84.29166,1
231049,0.00390625,0.8051758,-0.05175781,-1.281738,0.5493163999999999,-32.77588,99.10767,-9.481201,-83.22693,14.38333,-2.533333,-2.716667,1
231319,0.09667969,0.8720703,-0.1762695,1.708984,-6.347656,13.06152,97.4707,-7.053223,-86.34705,21.39167,-5.383333,2.291667,1
231539,0.0625,0.6953125,0.265625,6.9580079999999995,-27.03857,-15.19775,99.49768,-3.109131,-86.8689,13.71667,-0.125,-0.9583332999999999,1
231749,0.109375,0.8378905999999999,-0.1923828,-26.61133,17.82227,-6.347656,99.82178,-5.839233,-89.9176,19.35,-5.133333,1.766667,1
232019,0.1552734,1.744629,0.1674805,29.90723,-21.42334,54.01611,102.3322,-6.729126,-89.76929,21.85,1.008333,3.716667,1
232239,-0.01416016,0.9140625,-0.1259766,-11.84082,-42.5415,-25.14648,100.6348,-7.311401,-87.90161,11.25833,-3.225,-2.166667,1
232539,0.4165039,1.530762,0.1811523,10.86426,-0.3662109,-36.86523,101.9916,-4.630737,-92.20276,19.08333,-89.75833,85.56667,1
232849,0.04980469,0.9116211,-0.1914063,-8.300781,13.97705,4.150391,100.47,-6.580811,-92.1698,17.3,-89.81667,84.7,1
233109,0.3388672,1.101563,-0.24414059999999999,28.44238,10.19287,10.98633,101.1182,-5.822754,-91.6864,9.65,4.4,0.9833333999999999,1
233359,-0.006347656,0.840332,-0.1494141,11.23047,1.525879,-25.08545,102.5958,-9.343872,-84.34204,11.89167,-87.20834,85.05833,1
233679,0.01220703,1.555664,0.25439449999999997,-12.02393,-23.74268,-20.69092,100.816,-6.734619,-89.05518,21.15,2.85,0.125,1
233969,0.1196289,0.8339844,-0.08984375,2.563477,14.46533,15.74707,100.2008,-6.16333,-92.60925,13.34167,-2.775,-1.8,1
234309,0.3535156,1.695801,0.36376949999999997,32.53174,17.51709,50.78125,100.448,-7.789307,-90.88989,19.93333,0.9500000000000001,0.31666669999999997,1
234549,0.152832,0.9189453,-0.14306639999999998,4.699707,-26.48926,-15.31982,100.0854,-6.547852,-90.31311,16.25,-89.59167,85.09167,1
234789,0.1762695,1.042969,-0.41064449999999997,20.20264,0.9765625,-3.845215,100.9149,-6.976318,-92.56531,21.875,2.658333,0.7166667,1
235029,0.1767578,0.8134766,-0.10888669999999999,-4.638672,-1.098633,29.78516,101.6235,-4.229736,-98.37158,21.78333,-89.08334,87.38333,1
235279,0.24414059999999999,0.7866211,-0.1811523,1.525879,11.35254,-10.13184,99.62402,-6.146851,-96.43799,19.625,-90.075,85.63333,1
235509,0.1411133,0.7583008,0.2651367,-17.8833,29.96826,2.13623,102.3322,-10.66772,-96.90491,16.225,-0.5833332999999999,1.516667,1
235769,0.08154297,0.8828125,-0.144043,7.873535,17.27295,-21.1792,101.1731,-9.777832,-88.4729,14.45,-3.641667,-4.266667,1
235979,0.44287109999999996,1.641113,0.09082031,26.48926,-2.868652,-45.95947,101.1127,-8.102417,-87.19299,19.13333,1.675,-1.741667,1
236249,0.30126949999999997,0.8759766,-0.05761719,-5.310059,-15.80811,14.89258,100.882,-4.839478,-89.36829,15.56667,-2.65,0.5666667,1
236479,-0.005371094000000001,1.169922,-0.375,9.155273,-0.6713867,-7.995605,100.7721,-6.113892,-86.74805,28.5,1.066667,3.975,1
236769,-0.02587891,0.918457,-0.09277344,-0.1831055,8.911133,-25.6958,101.0962,-11.11816,-83.59497,10.63333,-87.96667,82.91666,1
237079,0.1191406,1.07666,-0.3930664,9.58252,-9.643555,-13.97705,100.4535,-9.003296,-86.61072,12.95833,-89.53333,83.175,1
237349,-0.02832031,1.059082,-0.04345703,-2.01416,-53.89404,2.929688,101.0138,-3.378296,-89.70886,12.425,0.0,-0.05,1
237599,0.4086914,0.9799804999999999,-0.2226563,3.112793,0.9765625,-13.12256,99.01978,-5.668945,-91.70288,17.975,-4.058333,2.95,1
237909,-0.04589844,0.9921875,-0.03271484,6.896973,35.46143,-14.52637,100.2997,-10.78308,-87.76978,14.1,-2.008333,1.55,1
238209,0.3129883,1.080078,-0.07128906,24.71924,-27.16064,13.00049,100.1678,-7.7948,-91.77979,30.11667,3.266667,2.858333,1
238549,0.2421875,0.7412109,-0.06103516,-2.868652,-0.42724609999999996,32.34863,100.9039,-3.614502,-97.93213,15.54167,-3.058333,-3.425,1
238779,0.02734375,0.9907227,-0.44970699999999997,15.38086,4.699707,9.460449,100.2283,-5.949097,-97.95959,19.45833,-91.03333,84.53333,1
239029,0.503418,1.050781,-0.03076172,2.807617,45.47119,6.04248,102.085,-11.10168,-95.79529,13.775,-0.5583332999999999,0.15833329999999998,1
239269,-0.07128906,0.8085937999999999,-0.1958008,0.3662109,-13.91602,26.85547,100.7062,-7.212524,-95.53162,18.075,-90.225,84.43333,1
239509,-0.01611328,0.6083984,0.3447266,-40.40527,-5.7983400000000005,-25.81787,102.6013,-3.262939,-96.9928,16.01667,0.2166667,-2.8083329999999997,1
239779,0.15478519999999998,0.890625,-0.1279297,5.67627,27.83203,28.01514,101.4423,-4.702148,-99.50867,15.05,-3.325,-3.333333,1
239999,0.3422852,1.0625,-0.2514648,-2.929688,8.728026999999999,-15.31982,99.53064,-5.817261,-97.27844,25.18333,0.30000000000000004,5.358333,1
240209,-0.1054688,0.9257812999999999,-0.05517578,13.61084,44.49463,-18.79883,100.4974,-10.97534,-88.48389,14.866670000000001,-2.208333,0.7666666999999999,1
240499,0.2832031,1.1323239999999999,-0.3500977,28.19824,1.7700200000000001,-7.69043,100.8435,-7.036743,-88.53333,16.41667,-89.7,82.81667,1
240759,-0.08935547,1.161133,0.02685547,-19.16504,-60.30273,-8.605957,101.8762,-1.450195,-93.3728,13.83333,-0.7333333,-2.783333,1
241009,0.20605469999999998,0.9575195,-0.246582,4.394531,10.86426,-11.53564,99.63501,-4.619751,-99.84924,22.91667,-91.06667,83.1,1
241309,-0.1113281,0.9379883,-0.04833984,13.85498,45.34912,-7.202148,101.7279,-11.01379,-90.74707,14.71667,-87.9,83.075,1
241579,-0.05126953,0.7910155999999999,-0.1572266,-22.15576,0.8544921999999999,5.249023,100.47,-7.7618409999999995,-89.14307,18.3,-3.941667,2.025,1
241819,0.06396484,1.086914,0.0546875,-9.887695,-46.50879,-20.20264,103.8757,-3.175049,-95.21851,22.99167,-88.8,85.20834,1
242129,0.1757813,0.7875977,-0.2231445,-29.35791,17.8833,-10.74219,101.4697,-6.877441,-97.93762,17.36667,-5.908333,-0.875,1
242439,0.5527344,1.174316,0.05078125,-2.685547,26.00098,14.64844,101.5192,-11.40381,-92.07642,15.675,-1.15,0.675,1
242739,-0.03808594,0.7519530999999999,-0.18212889999999998,-5.737305,-22.2168,17.08984,99.87671,-7.014771,-90.77454,19.2,-9.233334,2.758333,1
243109,0.2592773,0.855957,-0.02441406,-2.868652,21.48438,31.73828,101.3818,-4.295654,-100.9589,23.01667,-89.8,84.40833,1
243369,0.3623047,1.087891,-0.20556639999999998,-7.69043,-2.746582,-15.68604,100.08,-5.690918,-100.8929,23.95,-1.9000000000000001,5.458333,1
243619,0.1235352,0.9311522999999999,0.0,25.57373,38.51318,-11.96289,100.838,-10.66223,-94.21326,16.73333,-88.58334,82.86667,1
243859,-0.03613281,0.8066405999999999,-0.15625,-34.48486,-6.347656,10.80322,100.2338,-6.564331,-93.25745,18.025,-5.341667,3.641667,1
244099,0.3227539,1.4863279999999999,0.2851563,15.99121,-19.59229,-50.1709,103.4363,-5.350342,-95.04822,20.49167,0.7833333,-1.3333329999999999,1
244309,0.10693359999999999,0.8950195,-0.12451169999999999,-11.71875,30.09033,7.446289,103.244,-6.130371,-98.10791,22.18333,-88.10833,85.075,1
244559,0.1479492,0.9663086,-0.37988279999999996,-4.211426,-2.502441,8.911133,102.6508,-5.553589,-95.99854,22.275,3.008333,0.1083333,1
244840,0.02441406,1.01709,-0.168457,10.62012,13.85498,-18.79883,102.6672,-10.25024,-92.13684,17.1,-86.65833,84.10833,1
246219,0.09814453000000001,0.7661133,-0.1489258,-10.86426,-12.39014,-14.77051,99.45923,-6.904907,-91.8512,13.05833,-2.783333,-1.491667,1
246459,0.1455078,0.9355469,0.3129883,-4.455566,-27.16064,-18.24951,102.8815,-1.966553,-100.2008,16.96667,-1.566667,-0.17500000000000002,1
246729,0.1733398,0.9052734,-0.1962891,-24.78027,-22.94922,2.380371,102.0795,-4.262695,-111.3849,30.975,-89.25,84.24167,1
247029,0.3110352,1.431152,-0.1074219,42.72461,9.643555,45.8374,101.8048,-4.476929,-111.4563,16.80833,2.983333,-2.783333,1
247279,0.024902340000000002,0.8891602,-0.1123047,15.80811,-26.9165,-31.86035,100.6897,-5.778809,-107.8198,13.51667,-2.091667,-2.2,1
247549,-0.1201172,1.398926,-0.1416016,-3.540039,-28.38135,-16.35742,102.5079,-3.916626,-112.0551,32.68333,-88.70834,84.59167,1
247829,0.36376949999999997,0.8007812999999999,-0.07910156,-2.197266,-19.83643,31.37207,101.1731,-0.8514404,-117.5647,15.61667,-2.358333,-1.608333,1
248069,0.3896484,1.096191,-0.18994139999999998,20.93506,19.04297,-8.422852,99.89868,-3.191528,-119.0698,28.34167,-0.9083334,6.358333,1
248409,-0.009765625,0.8251953,0.03222656,-0.9155272999999999,20.87402,-13.91602,99.33838,-8.838501,-113.8074,15.53333,-1.825,0.3833333,1
248650,0.01269531,1.120605,-0.2314453,3.4790039999999998,-30.2124,10.62012,98.52539,-6.256714,-114.7302,33.0,-90.44167,82.69167,1
248889,-0.2304688,1.173828,0.1259766,-9.155273,-34.66797,-15.80811,99.95911,-2.164307,-118.0481,14.275,-0.1666667,0.9500000000000001,1
249129,0.1694336,0.8085937999999999,-0.2119141,-9.94873,7.446289,-9.277344,98.5968,-5.344849,-123.4149,37.51667,-90.86667,81.61667,1
249369,0.02734375,1.617188,0.152832,14.83154,2.502441,45.77637,101.228,-6.377563,-121.6681,19.60833,1.266667,0.1916667,1
249639,-0.007324219000000001,0.9755859,-0.09472656,0.5493163999999999,2.563477,-18.43262,100.0745,-8.66272,-119.8444,15.98333,-2.816667,0.5166666999999999,1
249859,0.02148438,0.7617187999999999,-0.2006836,-18.9209,-17.39502,17.82227,99.70642,-5.592041,-122.5195,18.43333,-7.608333,2.525,1
250079,-0.008300781,1.143555,-0.008300781,-5.67627,-52.06299,3.417969,100.8215,-0.8734130999999999,-130.2979,14.26667,-0.2,0.85,1
250349,0.01855469,0.8417969,-0.128418,-9.82666,-3.356934,15.50293,99.12415,-5.608521,-132.3688,15.64167,-3.941667,-1.075,1
250559,-0.015625,1.362793,0.078125,2.380371,-2.929688,37.35352,100.5084,-6.734619,-137.5323,20.725,-0.25,-0.05833333,1
250869,0.16259769999999998,0.8803711,-0.2114258,-7.873535,-4.577637,-12.146,101.1786,-4.817505,-135.1923,43.575,-90.48333,81.15833,1
251180,0.3686523,1.311523,0.20214839999999998,24.4751,-20.01953,-37.47559,102.2717,-3.076172,-138.0597,46.74166,-89.75833,81.24167,1
251439,0.19726559999999999,0.8388671999999999,-0.05615234,1.281738,-4.699707,29.84619,100.7611,-2.444458,-143.8605,15.65,-3.025,-2.35,1
251679,0.1137695,1.0625,-0.3852539,11.53564,7.080078,11.35254,99.51965,-4.031982,-142.9376,47.25834,-91.34167,79.475,1
251989,-0.0009765625,0.8266602,-0.08349609,8.789063,-0.9765625,-26.61133,100.3876,-7.520142,-137.8674,14.76667,-3.925,-2.183333,1
252299,0.01611328,1.210938,-0.4833984,14.5874,-31.98242,-25.08545,101.0303,-5.427246,-140.8337,13.94167,4.616667,-3.016667,1
252609,0.1298828,0.8662109,-0.07275391,-2.929688,10.80322,26.00098,99.245,-3.751831,-146.651,13.925,-3.075,-2.116667,1
253109,0.008789063,1.032715,-0.06787109,16.05225,40.22217,-11.47461,100.6842,-10.0415,-139.5648,14.6,-2.275,0.8416665999999999,1
253359,0.2036133,1.165039,-0.2509766,9.521484,-17.45605,0.8544921999999999,99.99756000000001,-7.36084,-139.455,44.98333,-91.3,81.58334,1
253609,-0.16601559999999999,1.127441,0.09960938,-2.13623,-32.71484,-20.01953,101.6895,-2.147827,-144.613,15.425,-0.775,-0.7666666999999999,1
253879,0.09863281,0.8891602,-0.1806641,-3.417969,16.6626,18.24951,100.816,-5.141602,-147.4365,13.76667,-2.641667,-2.408333,1
254089,0.020996090000000002,1.102051,-0.3032227,-1.037598,0.06103516,-7.080078,99.84924,-3.927612,-146.5796,25.35833,-0.275,1.858333,1
254299,-0.0234375,0.9780272999999999,-0.06103516,1.098633,-1.708984,-8.728026999999999,99.59656,-7.954102,-148.233,49.01667,-91.83334,79.075,1
254549,0.159668,0.8432617,-0.184082,-20.44678,-11.59668,3.845215,99.7998,-3.702393,-153.5944,20.21667,-4.55,1.358333,1
254799,-0.04443359,1.02002,0.1464844,-11.77979,-37.78076,-7.263184,100.481,-1.224976,-157.9944,13.71667,-1.6,0.5083333,1
255099,0.1967773,0.8637695,-0.21435549999999998,-23.98682,-13.30566,-4.089355,100.2667,-4.696655,-164.4049,56.875,-92.20834,72.575,1
255409,0.3691406,0.949707,0.11865229999999999,-1.953125,20.62988,10.00977,101.1237,-8.250732,-163.8501,53.65,-92.69167,75.01667,1
255679,0.1928711,0.8359375,-0.15820309999999999,2.990723,4.089355,-23.19336,101.272,-6.624756,-159.1699,14.975,-2.75,-3.125,1
255919,-0.08740234,1.428223,-0.1318359,-3.78418,-23.25439,-24.59717,100.7886,-5.130615,-159.1919,56.35,-90.79166,75.35,1
256219,0.1254883,0.9638671999999999,-0.1376953,6.9580079999999995,7.385254,24.35303,100.8765,-4.998779,-165.9814,14.18333,-3.041667,-3.383333,1
256529,0.421875,1.347168,-0.12695309999999999,19.59229,-5.7983400000000005,22.15576,100.7831,-6.086426,-165.2783,13.96667,2.575,-1.191667,1
256839,0.09570313,0.8613280999999999,-0.137207,19.104,-12.39014,-24.71924,101.1017,-6.838989,-165.0751,15.0,-3.491667,-2.691667,1
257169,0.1254883,1.447266,-0.199707,8.361816,-17.51709,-26.85547,102.3102,-4.696655,-169.7278,16.46667,2.666667,-0.6000000000000001,1
257439,0.1230469,0.9765625,-0.1464844,1.708984,25.39063,25.5127,101.3049,-4.44397,-171.8811,14.31667,-3.55,-3.225,1
257809,0.09521484000000001,0.7851562999999999,0.2260742,-26.48926,13.48877,17.21191,100.0085,-7.695923,-171.1066,57.375,-93.125,68.29166,1
258079,0.1103516,0.8701171999999999,-0.1357422,5.7983400000000005,-23.37646,-22.52197,100.5469,-6.773071,-169.3103,15.66667,-3.858333,-2.741667,1
258319,-0.07226563,1.008789,-0.16699219999999998,0.06103516,-13.30566,13.79395,98.95386,-6.086426,-171.5735,20.44167,-5.6,0.025,1
258529,0.2758789,0.9018554999999999,-0.06347656,-4.943848,-34.66797,24.04785,98.90991,-1.312866,-179.6155,62.38334,-91.91666,61.66667,1
258769,0.15820309999999999,0.8510742,-0.1357422,-27.03857,-5.249023,1.403809,97.88818,-5.861206,179.3683,17.725,-3.083333,0.5833332999999999,1
