Timestamp,AccX,AccY,AccZ,GyroX,GyroY,GyroZ,AngX,AngY,AngZ,MagX,MagY,MagZ,Tag
0,-0.01660156,1.01416,-0.1674805,-4.638672,-4.150391,6.225586,90.41199,0.32409669999999996,-143.5254,60.79167,-87.225,69.875,1
379,0.01757813,1.003906,-0.159668,0.7324219,-0.4882813,2.319336,89.82971,-0.3570557,-144.3933,17.28333,-2.983333,-0.1083333,1
579,0.01757813,1.003906,-0.159668,0.7324219,-0.4882813,2.319336,89.82971,-0.3570557,-144.3933,17.0,-2.358333,-0.3833333,1
779,0.01757813,1.003906,-0.159668,0.7324219,-0.4882813,2.319336,89.82971,-0.3570557,-144.3933,17.06667,-2.508333,-0.30000000000000004,1
979,0.01757813,1.003906,-0.159668,0.7324219,-0.4882813,2.319336,89.82971,-0.3570557,-144.3933,17.33333,-2.741667,-0.15833329999999998,1
1179,0.01757813,1.003906,-0.159668,0.7324219,-0.4882813,2.319336,89.82971,-0.3570557,-144.3933,17.0,-2.041667,-0.03333333,1
1399,0.02294922,1.009766,-0.1464844,-0.3051758,0.9765625,0.7324219,89.02222,-1.609497,-143.833,17.125,-2.416667,-0.09166667,1
1649,0.030273440000000002,1.002441,-0.1337891,0.9155272999999999,-0.6103516,0.793457,89.05518,-1.8182369999999999,-143.8495,59.35,-88.61667,68.84167,1
1949,0.04345703,1.007324,-0.15869139999999998,3.234863,1.281738,-0.42724609999999996,89.56055,-1.878662,-143.8989,17.35,-2.766667,0.125,1
2199,0.03564453,1.005371,-0.1542969,0.12207029999999999,2.13623,0.9155272999999999,89.75281,-2.147827,-143.7286,17.13333,-2.566667,-0.025,1
2459,0.04296875,1.002441,-0.15087889999999998,-0.42724609999999996,0.12207029999999999,0.06103516,89.70886,-2.323608,-143.3331,58.79167,-88.73333,69.58334,1
2759,0.05078125,1.001465,-0.15136719999999998,-0.42724609999999996,-0.4882813,-0.6103516,89.67041,-2.301636,-143.3716,17.18333,-2.5,-0.08333334,1
3009,0.04248047,1.003906,-0.1455078,-1.403809,-1.281738,-0.42724609999999996,89.45618,-2.142334,-143.6902,17.19167,-2.375,-0.2,1
3309,0.03710938,1.00293,-0.140625,0.8544921999999999,0.1831055,-0.42724609999999996,89.36279,-2.076416,-143.833,17.20833,-2.508333,0.04166667,1
3619,0.03369141,1.005371,-0.14697269999999998,0.6103516,0.3662109,-0.5493163999999999,89.58252,-2.015991,-143.6792,17.21667,-2.633333,0.0,1
3929,0.03466797,1.003906,-0.144043,-0.24414059999999999,-0.06103516,0.3051758,89.63745,-1.955566,-143.7726,17.16667,-2.583333,-0.01666667,1
4239,0.03417969,1.005371,-0.1455078,-0.6103516,0.06103516,0.5493163999999999,89.57703,-2.098389,-143.7506,17.21667,-2.508333,-0.15833329999999998,1
4569,0.03759766,1.007813,-0.144043,-0.8544921999999999,0.3662109,0.1831055,89.32983,-2.219238,-143.7177,17.14167,-2.366667,-0.1,1
4769,0.03369141,1.006348,-0.1386719,-0.24414059999999999,-0.3662109,0.12207029999999999,89.26392,-2.235718,-143.7396,17.2,-2.433333,0.0,1
4989,0.04003906,1.004883,-0.1420898,0.12207029999999999,0.0,0.0,89.32434,-2.2796629999999998,-143.8385,59.00834,-88.75,68.8,1
5229,0.0390625,1.005859,-0.1396484,0.24414059999999999,0.0,0.12207029999999999,89.36829,-2.290649,-143.866,17.16667,-2.408333,0.0,1
5469,0.04052734,1.006348,-0.1459961,0.5493163999999999,0.0,0.24414059999999999,89.53308,-2.400513,-143.833,59.04167,-88.85833,68.775,1
5719,0.04248047,1.008301,-0.1533203,-0.8544921999999999,-0.06103516,0.0,89.57703,-2.400513,-143.9044,17.15833,-2.433333,-0.17500000000000002,1
5989,0.04052734,1.004395,-0.1328125,-1.098633,0.6713867,0.12207029999999999,89.32983,-2.438965,-143.8,17.16667,-2.35,-0.05,1
6219,0.03662109,1.007813,-0.1376953,0.0,-0.3051758,0.1831055,89.32434,-2.411499,-143.833,59.05833,-88.85833,68.80833,1
6479,0.04150391,1.010254,-0.1435547,0.0,0.12207029999999999,-0.06103516,89.4342,-2.406006,-143.844,17.19167,-2.366667,-0.08333334,1
6709,0.03613281,1.003906,-0.1420898,-0.9155272999999999,-0.7324219,-0.6103516,89.5166,-2.356567,-143.9813,59.025,-88.80833,68.7,1
6979,0.04199219,0.9946288999999999,-0.11865229999999999,-0.1831055,0.3051758,0.4882813,89.26941,-2.444458,-143.855,17.14167,-2.275,0.1083333,1
7249,0.04296875,0.9985352,-0.1230469,-2.13623,-0.12207029999999999,1.403809,89.1925,-2.488403,-143.7177,17.08333,-2.175,0.01666667,1
7519,0.04296875,1.008789,-0.13525389999999998,0.1831055,0.4882813,-0.3051758,89.21448,-2.49939,-143.6957,58.93333,-88.89167,68.46667,1
7789,0.04296875,1.007813,-0.1308594,0.1831055,-0.1831055,-0.12207029999999999,89.23645,-2.488403,-143.6737,17.20833,-2.291667,0.01666667,1
8039,0.04003906,1.006348,-0.13134769999999998,-0.42724609999999996,-0.12207029999999999,0.12207029999999999,89.29688,-2.471924,-143.6792,17.15,-2.216667,0.05833333,1
8349,0.04052734,1.008301,-0.1323242,0.3051758,0.12207029999999999,0.3662109,89.37378,-2.504883,-143.6462,17.20833,-2.291667,0.01666667,1
8679,0.04443359,1.005859,-0.1333008,-0.06103516,-0.1831055,0.0,89.44519,-2.565308,-143.6627,17.2,-2.3,-0.01666667,1
8989,0.04248047,1.007324,-0.13525389999999998,-0.1831055,-0.06103516,-0.12207029999999999,89.44519,-2.532349,-143.7122,17.19167,-2.25,0.0,1
9229,0.04345703,1.007324,-0.1333008,-0.24414059999999999,0.12207029999999999,0.0,89.48364,-2.521362,-143.6957,58.98333,-89.025,68.84167,1
9469,0.04199219,1.008789,-0.137207,-0.24414059999999999,0.1831055,0.0,89.50012,-2.510376,-143.6737,17.19167,-2.266667,-0.008333334000000001,1
9709,0.04345703,1.008789,-0.1362305,-0.24414059999999999,0.5493163999999999,0.12207029999999999,89.49463,-2.537842,-143.6243,17.15,-2.233333,0.0,1
9919,0.04248047,1.008789,-0.1333008,-0.5493163999999999,0.12207029999999999,0.24414059999999999,89.48364,-2.543335,-143.6133,59.04167,-89.05,68.59167,1
10199,0.04248047,1.006836,-0.13134769999999998,-0.3051758,0.0,0.0,89.47815,-2.554321,-143.5858,17.18333,-2.241667,-0.01666667,1
10449,0.04199219,1.008301,-0.1303711,0.0,0.0,0.0,89.45068,-2.548828,-143.5748,58.90833,-89.0,68.66666,1
10720,0.04394531,1.006836,-0.1293945,0.0,-0.12207029999999999,0.0,89.47815,-2.537842,-143.5803,59.0,-89.15,68.46667,1
11019,0.04443359,1.009277,-0.1333008,0.1831055,-0.12207029999999999,0.0,89.51111,-2.532349,-143.5583,17.175,-2.2,0.03333333,1
11259,0.0390625,1.009766,-0.1381836,0.7324219,0.5493163999999999,0.0,89.66492,-2.526855,-143.5034,58.94167,-88.925,68.56667,1
11539,0.04296875,1.006348,-0.1308594,0.0,-0.3662109,0.12207029999999999,89.63196,-2.609253,-143.6078,58.975,-89.05833,68.65,1
11839,0.04003906,1.009277,-0.13525389999999998,1.098633,-0.4882813,0.0,89.79126,-2.548828,-143.7396,17.15,-2.308333,0.2083333,1
12089,0.04394531,1.006348,-0.1420898,2.319336,-1.037598,0.0,90.28015,-2.5872800000000002,-143.9594,17.2,-2.6,0.2166667,1
12349,0.03759766,1.008789,-0.15917969999999998,0.42724609999999996,-1.159668,-0.6713867,90.67566,-2.460938,-144.4043,59.25834,-88.6,68.89167,1
12639,0.03515625,1.004883,-0.1523438,0.0,-1.037598,-0.24414059999999999,90.67566,-2.351074,-144.6185,17.18333,-2.633333,0.0,1
12909,0.03076172,1.00293,-0.152832,0.6103516,-0.6713867,-0.3662109,90.70862,-2.230225,-144.8767,17.13333,-2.725,0.1416667,1
13179,0.02783203,1.003418,-0.15820309999999999,0.42724609999999996,-0.7324219,-0.6103516,90.85144,-2.032471,-145.1624,17.10833,-2.725,0.03333333,1
13559,0.022460940000000002,1.002441,-0.1674805,0.24414059999999999,-0.1831055,-0.12207029999999999,90.82397,-1.8731689999999999,-145.2393,17.04167,-2.608333,-0.1333333,1
13849,0.02783203,1.003418,-0.1645508,-0.12207029999999999,0.6713867,-0.24414059999999999,90.68665,-1.878662,-145.1459,17.08333,-2.633333,-0.08333334,1
14059,0.02783203,1.00293,-0.15869139999999998,-1.098633,1.464844,0.3051758,90.48889,-1.889648,-144.9152,17.13333,-2.641667,-0.15833329999999998,1
14269,0.03222656,1.007813,-0.1552734,-1.586914,1.159668,0.9155272999999999,90.04395,-2.092896,-144.3823,17.11667,-2.5,-0.05833333,1
14549,0.03613281,1.004883,-0.144043,-0.793457,0.9765625,0.3662109,89.88464,-2.180786,-144.256,17.16667,-2.55,-0.125,1
14749,0.03613281,1.007813,-0.1484375,-0.4882813,0.3051758,0.12207029999999999,89.69238,-2.241211,-144.0747,59.31667,-88.675,68.89167,1
15009,0.03759766,1.009277,-0.1435547,-0.793457,0.3662109,0.0,89.55505,-2.27417,-143.9813,17.14167,-2.383333,-0.08333334,1
15279,0.03710938,1.007324,-0.1376953,-0.4882813,0.0,-0.3662109,89.4342,-2.197266,-143.9319,59.35833,-88.66666,68.65833,1
16559,0.03125,1.008789,-0.1386719,-0.5493163999999999,0.3051758,0.0,89.48914,-2.021484,-143.8879,17.175,-2.316667,-0.05833333,1
16779,0.03320313,1.009766,-0.137207,-0.1831055,0.24414059999999999,0.3662109,89.45068,-2.032471,-143.8385,59.41667,-88.64167,68.35833,1
17059,0.03222656,1.007324,-0.1367188,0.0,0.0,-0.24414059999999999,89.46716,-2.032471,-143.855,17.18333,-2.258333,-0.03333333,1
17289,0.03515625,1.006836,-0.1328125,-0.06103516,-0.1831055,-0.12207029999999999,89.49463,-2.005005,-143.855,59.6,-88.75,68.525,1
17599,0.03125,1.008789,-0.1376953,-0.9155272999999999,0.1831055,0.06103516,89.50012,-1.9885249999999999,-143.8715,17.21667,-2.233333,-0.075,1
17899,0.03515625,1.004395,-0.125,-0.12207029999999999,-0.3662109,-0.5493163999999999,89.4342,-1.933594,-143.8879,59.575,-88.60833,68.23333,1
18209,0.03417969,0.9995117,-0.12207029999999999,1.342773,1.037598,0.3662109,89.57703,-1.8951419999999999,-143.7341,17.24167,-2.416667,0.08333334,1
18549,0.02929688,1.008301,-0.1376953,0.12207029999999999,0.0,-0.06103516,89.75281,-1.906128,-143.7341,17.15833,-2.316667,0.0,1
18849,0.03125,1.006836,-0.1386719,0.0,-0.4882813,-0.1831055,89.80774,-1.8457029999999999,-143.8275,17.20833,-2.358333,-0.01666667,1
19079,0.02929688,1.005371,-0.1342773,-0.1831055,0.0,0.12207029999999999,89.78577,-1.807251,-143.877,17.18333,-2.341667,0.0,1
19269,0.02832031,1.009277,-0.14306639999999998,-0.1831055,0.06103516,0.3662109,89.78577,-1.829224,-143.8605,17.18333,-2.308333,-0.025,1
19479,0.026367190000000002,1.010254,-0.14257809999999999,-0.793457,0.0,0.5493163999999999,89.71985,-1.884155,-143.877,17.20833,-2.316667,-0.1916667,1
19699,0.03271484,1.005371,-0.12744139999999998,-1.159668,0.5493163999999999,0.7324219,89.46716,-2.015991,-143.8165,17.14167,-2.158333,-0.05833333,1
19909,0.03662109,1.006348,-0.128418,-0.3051758,0.0,0.1831055,89.42871,-2.081909,-143.7341,59.44167,-88.75833,68.43333,1
20149,0.03515625,1.008789,-0.1318359,0.0,0.12207029999999999,0.06103516,89.46167,-2.081909,-143.7396,17.18333,-2.241667,-0.008333334000000001,1
20399,0.03369141,1.008301,-0.1318359,-0.06103516,0.1831055,0.0,89.48914,-2.081909,-143.7286,17.2,-2.225,0.0,1
20699,0.03222656,1.007813,-0.1308594,0.06103516,-0.12207029999999999,0.0,89.50562,-2.076416,-143.7506,17.2,-2.216667,-0.008333334000000001,1
20920,0.03320313,1.009766,-0.1298828,-0.12207029999999999,-0.06103516,0.0,89.5166,-2.059937,-143.7506,59.4,-88.84167,68.45834,1
21229,0.03417969,1.007813,-0.1298828,0.3051758,0.0,0.12207029999999999,89.56604,-2.059937,-143.7286,17.225,-2.3,0.008333334000000001,1
21519,0.03515625,1.009277,-0.1318359,0.0,-0.12207029999999999,0.12207029999999999,89.599,-2.109375,-143.7177,59.46667,-88.75833,68.375,1
21829,0.03564453,1.008789,-0.1293945,0.1831055,-0.06103516,-0.06103516,89.61548,-2.114868,-143.7067,17.225,-2.266667,-0.008333334000000001,1
22129,0.03369141,1.009277,-0.1318359,0.0,-0.1831055,0.0,89.63745,-2.098389,-143.7177,59.40833,-88.65,68.38333,1
22429,0.03417969,1.007324,-0.1293945,0.12207029999999999,-0.12207029999999999,0.0,89.64294,-2.087402,-143.7012,59.33333,-88.75833,68.375,1
22709,0.03515625,1.006836,-0.1289063,0.0,0.0,0.12207029999999999,89.65942,-2.092896,-143.7067,17.20833,-2.258333,0.0,1
22949,0.03369141,1.008789,-0.1308594,0.0,0.0,0.1831055,89.6759,-2.092896,-143.6902,17.18333,-2.183333,0.008333334000000001,1
23299,0.03564453,1.007813,-0.1293945,-0.1831055,-0.1831055,0.0,89.69788,-2.092896,-143.7122,17.20833,-2.233333,0.0,1
23489,0.03417969,1.008789,-0.1298828,-0.24414059999999999,0.06103516,0.0,89.68689,-2.081909,-143.7177,17.18333,-2.2,-0.01666667,1
23719,0.03515625,1.007324,-0.1293945,0.06103516,0.0,0.0,89.68689,-2.076416,-143.6792,17.21667,-2.233333,0.0,1
23929,0.03320313,1.007324,-0.1308594,0.0,0.0,0.0,89.71436,-2.06543,-143.6902,17.225,-2.25,0.008333334000000001,1
24139,0.03466797,1.008301,-0.13134769999999998,-0.12207029999999999,0.0,0.0,89.72534,-2.054443,-143.6737,59.375,-88.875,68.475,1
24379,0.03417969,1.008301,-0.1318359,-0.1831055,-0.06103516,0.0,89.72534,-2.04895,-143.6792,17.18333,-2.233333,0.0,1
24629,0.03613281,1.007324,-0.12744139999999998,-0.24414059999999999,0.12207029999999999,0.0,89.71985,-2.043457,-143.6682,17.21667,-2.241667,-0.03333333,1
24940,0.03369141,1.008301,-0.1303711,-0.12207029999999999,0.0,0.0,89.70337,-2.037964,-143.6407,59.43333,-88.80833,68.25,1
25249,0.03417969,1.006836,-0.12744139999999998,0.0,0.06103516,0.0,89.71436,-2.026978,-143.6462,59.41667,-88.875,68.45,1
25509,0.03613281,1.007324,-0.1289063,0.0,0.06103516,0.12207029999999999,89.73633,-2.037964,-143.6133,17.20833,-2.225,0.0,1
25759,0.03613281,1.006348,-0.1308594,-0.06103516,0.06103516,0.3051758,89.76379,-2.06543,-143.6023,59.275,-88.85,68.33334,1
26059,0.03466797,1.007324,-0.1293945,0.06103516,0.1831055,0.12207029999999999,89.76929,-2.098389,-143.5858,17.21667,-2.233333,0.0,1
26369,0.0390625,1.006836,-0.1308594,-0.06103516,-0.1831055,0.0,89.80225,-2.131348,-143.5858,17.16667,-2.208333,0.0,1
26659,0.03662109,1.007324,-0.128418,-0.24414059999999999,0.0,0.06103516,89.81323,-2.142334,-143.5968,59.23333,-88.94167,68.35833,1
26939,0.03808594,1.007324,-0.1323242,0.24414059999999999,-0.3051758,0.06103516,89.8407,-2.147827,-143.6298,17.225,-2.266667,-0.008333334000000001,1
27189,0.03662109,1.005371,-0.1298828,0.1831055,-0.3051758,0.0,89.85168,-2.147827,-143.6243,17.16667,-2.266667,0.0,1
27489,0.03515625,1.004883,-0.1264648,0.1831055,0.6713867,0.12207029999999999,89.88464,-2.147827,-143.7671,17.21667,-2.225,0.1666667,1
27839,0.03369141,1.010742,-0.1435547,0.5493163999999999,-0.8544921999999999,-0.06103516,90.18677,-2.114868,-143.7891,17.15833,-2.375,0.05833333,1
28039,0.03515625,1.005371,-0.1411133,1.037598,0.6103516,-0.24414059999999999,90.30762,-2.136841,-143.7781,17.25,-2.583333,0.01666667,1
28249,0.03857422,1.005859,-0.1411133,0.0,-0.3662109,0.12207029999999999,90.33508,-2.142334,-143.9099,59.34167,-88.64167,68.78333,1
28489,0.03417969,1.003906,-0.13916019999999998,0.24414059999999999,-0.06103516,0.06103516,90.34607,-2.1698,-143.9044,17.18333,-2.483333,0.008333334000000001,1
28759,0.03662109,1.006348,-0.1474609,0.0,-0.793457,0.0,90.35706,-2.136841,-144.0143,17.11667,-2.416667,-0.08333334,1
28979,0.03662109,1.007324,-0.1450195,0.0,0.42724609999999996,0.0,90.27466,-2.15332,-143.9044,17.16667,-2.475,-0.03333333,1
29259,0.03369141,1.006348,-0.14257809999999999,-0.06103516,0.6713867,0.42724609999999996,90.23071,-2.136841,-143.9374,59.44167,-88.65,68.69167,1
29529,0.03808594,1.005859,-0.1450195,-0.06103516,-0.06103516,0.12207029999999999,90.21973,-2.180786,-143.833,17.2,-2.5,-0.03333333,1
29799,0.03417969,1.008301,-0.144043,0.12207029999999999,0.42724609999999996,0.24414059999999999,90.14832,-2.202759,-143.822,17.19167,-2.5,-0.03333333,1
30079,0.03662109,1.005371,-0.140625,0.3051758,0.24414059999999999,-0.12207029999999999,90.10437,-2.219238,-143.844,59.45,-88.74167,68.725,1
30349,0.04199219,1.004395,-0.1411133,0.793457,-0.42724609999999996,-0.1831055,90.18677,-2.230225,-143.7671,17.24167,-2.516667,-0.05,1
30589,0.03564453,1.003418,-0.14306639999999998,0.1831055,0.42724609999999996,0.06103516,90.19226,-2.208252,-143.8165,59.33333,-88.68333,68.86667,1
30889,0.03125,1.008301,-0.1445313,-0.06103516,-0.4882813,-0.24414059999999999,90.17029,-2.164307,-143.833,59.41667,-88.65,68.68333,1
31169,0.03759766,1.004395,-0.1464844,0.24414059999999999,0.12207029999999999,-0.12207029999999999,90.17578,-2.158813,-143.7506,17.19167,-2.541667,-0.05833333,1
31419,0.03320313,1.006348,-0.1445313,0.0,0.7324219,0.42724609999999996,90.04395,-2.1698,-143.7561,17.14167,-2.366667,-0.008333334000000001,1
31729,0.04003906,1.005859,-0.1420898,-0.8544921999999999,-0.3662109,0.12207029999999999,89.93958,-2.213745,-143.7451,17.15,-2.391667,0.04166667,1
32059,0.03417969,1.004883,-0.1337891,-1.037598,0.24414059999999999,0.0,89.76929,-2.25769,-143.6078,17.175,-2.375,-0.075,1
33239,0.03320313,1.007813,-0.1362305,-0.24414059999999999,0.24414059999999999,-0.3051758,89.64294,-2.246704,-144.1132,17.15833,-2.291667,0.008333334000000001,1
33459,0.03369141,1.007324,-0.1386719,0.0,0.3051758,0.0,89.69238,-2.219238,-144.1132,17.18333,-2.325,0.0,1
33669,0.03320313,1.006348,-0.1362305,-0.06103516,-0.06103516,0.0,89.69788,-2.208252,-144.1296,17.21667,-2.383333,-0.04166667,1
33889,0.03564453,1.008301,-0.1376953,-0.5493163999999999,0.0,0.12207029999999999,89.63745,-2.219238,-144.0637,59.43333,-88.80833,68.25833,1
34119,0.03515625,1.007813,-0.1357422,0.0,-0.06103516,0.0,89.63196,-2.202759,-144.1022,17.175,-2.316667,-0.008333334000000001,1
34399,0.03417969,1.007324,-0.1367188,0.42724609999999996,-0.12207029999999999,0.0,89.68689,-2.202759,-144.0802,17.18333,-2.35,0.03333333,1
34619,0.03564453,1.008301,-0.13525389999999998,0.0,0.42724609999999996,-0.06103516,89.6814,-2.191772,-144.0198,17.20833,-2.341667,-0.03333333,1
34889,0.03613281,1.004883,-0.1328125,-0.06103516,-0.12207029999999999,0.0,89.6814,-2.191772,-144.0143,17.18333,-2.325,-0.04166667,1
35110,0.03564453,1.003418,-0.1337891,-0.06103516,1.159668,1.342773,89.67041,-2.2796629999999998,-143.8385,59.18333,-88.91666,68.35833,1
35379,0.04052734,1.007324,-0.1342773,-0.1831055,-0.3051758,0.9155272999999999,89.63745,-2.48291,-143.6902,17.05833,-2.15,0.03333333,1
35619,0.03125,1.012695,-0.1494141,-0.6713867,-1.464844,-1.342773,89.82971,-2.158813,-144.0802,59.45,-88.83334,68.49167,1
35929,0.02441406,1.009277,-0.1386719,2.319336,3.601074,-0.1831055,90.06042,-2.136841,-143.5529,17.275,-2.45,0.4583333,1
36219,0.02050781,1.013672,-0.1958008,11.04736,4.577637,-3.601074,91.55457,-1.8182369999999999,-142.2125,59.19167,-87.93333,70.65,1
36529,0.01025391,0.9980469,-0.2265625,-2.258301,-4.150391,0.12207029999999999,92.75208,-1.279907,-142.4377,59.83333,-87.48333,71.21667,1
36809,0.02001953,0.9882812999999999,-0.1845703,-15.19775,-11.53564,7.141113,91.06018,-2.076416,-143.7891,16.75833,-1.941667,-0.8083332999999999,1
37049,0.004882813000000001,0.996582,-0.1137695,4.150391,-0.793457,0.42724609999999996,89.95605,-2.559814,-145.86,17.15,-3.116667,0.8250000000000001,1
37389,0.06787109,1.000977,-0.1523438,-1.403809,1.8310549999999999,1.342773,90.95581,-2.576294,-145.8655,16.75833,-2.116667,-0.36666669999999996,1
37599,0.048828130000000004,1.015625,-0.1757813,2.197266,-1.220703,-1.037598,90.79102,-2.60376,-145.5304,17.40833,-2.975,-0.75,1
37819,0.03808594,0.9980469,-0.1362305,-2.380371,-2.685547,-1.586914,90.20325,-2.384033,-146.3654,17.19167,-2.575,-0.425,1
38019,0.05029297,1.004883,-0.1381836,-3.601074,3.173828,-0.793457,89.61548,-2.114868,-146.5686,17.35,-2.425,-0.525,1
38229,0.03564453,1.005859,-0.09912109000000001,-1.586914,3.356934,0.1831055,88.62671,-2.285156,-144.8163,59.51667,-89.06667,67.09167,1
38479,0.03076172,1.015137,-0.12695309999999999,-1.7700200000000001,-1.281738,-1.89209,88.61572,-2.015991,-144.4427,17.11667,-1.758333,-0.2666667,1
38729,0.008300781,0.9580078,-0.1015625,-1.8310549999999999,1.403809,1.8310549999999999,88.57178,-1.5325929999999999,-145.069,17.14167,-1.858333,0.1916667,1
39029,0.02294922,1.030273,-0.1308594,1.159668,0.0,1.281738,88.75854,-1.7028809999999999,-144.9536,17.2,-1.983333,0.08333334,1
39239,0.02294922,1.030273,-0.1308594,1.159668,0.0,1.281738,88.75854,-1.7028809999999999,-144.9536,17.35,-2.175,-0.05,1
39449,0.02294922,1.030273,-0.1308594,1.159668,0.0,1.281738,88.75854,-1.7028809999999999,-144.9536,17.23333,-2.066667,-0.325,1
39669,0.04345703,1.01416,-0.1137695,-2.624512,1.6479489999999999,1.342773,88.44543,-2.268677,-145.1239,17.05833,-1.533333,-0.2166667,1
39949,0.04003906,1.009766,-0.09277344,-0.24414059999999999,-0.1831055,0.24414059999999999,88.19275,-2.367554,-144.8712,59.28333,-89.4,66.4,1
40219,0.0390625,1.009277,-0.09960938,0.7324219,-0.793457,0.12207029999999999,88.35754,-2.367554,-145.0415,17.28333,-1.766667,0.15833329999999998,1
40469,0.04003906,1.011719,-0.1098633,0.7324219,0.06103516,0.3051758,88.797,-2.438965,-145.025,17.29167,-1.875,0.15,1
40779,0.04003906,1.008301,-0.1025391,0.0,-0.12207029999999999,-0.1831055,89.00024,-2.444458,-145.1678,17.25833,-1.95,0.0,1
41109,0.041015630000000004,1.013672,-0.1123047,-1.586914,0.4882813,0.24414059999999999,88.96179,-2.411499,-145.1404,17.29167,-1.75,-0.2166667,1
41419,0.03808594,1.007813,-0.1000977,-3.417969,0.4882813,0.1831055,88.5553,-2.422485,-144.9261,17.10833,-1.575,-0.3833333,1
41659,0.05029297,1.006836,-0.08007813,0.6713867,-0.5493163999999999,-1.342773,88.22021,-2.373047,-145.1349,59.4,-89.54166,65.80833,1
41899,0.02832031,1.018555,-0.105957,1.89209,-1.220703,-0.4882813,88.61572,-2.175293,-145.2118,17.55833,-1.791667,0.2083333,1
42139,0.02978516,1.011719,-0.1079102,-0.9765625,-0.24414059999999999,0.9765625,88.81897,-2.186279,-145.3766,16.94167,-1.2,-0.1916667,1
42349,0.02441406,1.040527,-0.1289063,3.234863,-0.3051758,-1.037598,88.84644,-2.367554,-144.8657,59.25834,-89.41666,66.1,1
42589,0.052734380000000004,0.9921875,-0.07470703000000001,0.1831055,0.1831055,0.12207029999999999,88.82446,-2.444458,-144.9591,17.5,-1.9000000000000001,-0.09166667,1
42869,0.04833984,1.010742,-0.08496094,-0.6713867,-0.3662109,0.6103516,88.84094,-2.493896,-145.025,17.25833,-1.558333,0.025,1
43089,0.04248047,1.012207,-0.09814453000000001,0.12207029999999999,-0.7324219,0.0,89.01123,-2.576294,-145.1788,17.275,-1.675,0.0,1
43359,0.04296875,1.009766,-0.09326172,0.06103516,-0.3051758,0.06103516,89.08264,-2.581787,-145.2557,59.225,-89.7,65.91666,1
43659,0.044921880000000004,1.016602,-0.1035156,-0.6103516,0.12207029999999999,0.3662109,89.12659,-2.5872800000000002,-145.2557,17.20833,-1.55,0.0,1
43909,0.04150391,1.009766,-0.09423828000000001,-0.24414059999999999,0.0,-0.06103516,89.11011,-2.598267,-145.2502,17.25,-1.6,-0.025,1
44179,0.04199219,1.010254,-0.09277344,-0.06103516,0.1831055,0.0,89.15405,-2.581787,-145.2283,59.23333,-89.675,65.90833,1
44449,0.04199219,1.009277,-0.09375000000000001,0.1831055,-0.3051758,0.0,89.24744,-2.576294,-145.2832,17.25,-1.675,0.03333333,1
44689,0.04199219,1.013184,-0.09814453000000001,0.06103516,0.06103516,0.0,89.32983,-2.570801,-145.2832,59.30833,-89.65833,65.78333,1
44999,0.04443359,1.012207,-0.09423828000000001,0.12207029999999999,-0.1831055,-0.3051758,89.30237,-2.570801,-145.2173,17.30833,-1.65,-0.03333333,1
45339,0.04199219,1.012695,-0.09570313,0.0,-0.3051758,-0.12207029999999999,89.31885,-2.554321,-145.2338,17.30833,-1.616667,0.01666667,1
45619,0.04248047,1.005859,-0.08544922,-0.3051758,-0.7324219,-0.42724609999999996,89.34631,-2.466431,-145.3381,17.275,-1.683333,0.05833333,1
45979,0.0390625,1.011719,-0.1025391,0.0,-0.06103516,0.12207029999999999,89.47815,-2.504883,-145.2832,59.36666,-89.6,65.84167,1
46239,0.04248047,1.019043,-0.09863281,0.24414059999999999,-0.4882813,-0.6103516,89.47266,-2.493896,-145.2667,17.25833,-1.625,-0.09166667,1
46489,0.0390625,1.010742,-0.09472656,-0.12207029999999999,-0.06103516,-0.12207029999999999,89.46167,-2.444458,-145.2887,17.24167,-1.575,-0.008333334000000001,1
46699,0.02978516,1.011719,-0.09716797,0.1831055,0.5493163999999999,0.42724609999999996,89.49463,-2.362061,-145.2887,59.36666,-89.54166,65.69167,1
46950,0.04443359,1.011719,-0.09130859,0.7324219,0.1831055,0.6103516,89.56604,-2.504883,-145.2008,17.36667,-1.816667,-0.075,1
47189,0.03710938,1.010742,-0.09863281,0.0,0.24414059999999999,-0.3662109,89.55505,-2.433472,-145.2942,17.33333,-1.641667,-0.09166667,1
47499,0.041015630000000004,1.013672,-0.09326172,-0.1831055,-0.1831055,0.0,89.51111,-2.39502,-145.3326,59.40833,-89.51667,65.575,1
47809,0.03369141,1.009766,-0.08789063,0.1831055,0.9155272999999999,0.12207029999999999,89.53308,-2.312622,-145.2722,59.475,-89.55,66.03333,1
48069,0.04003906,1.009277,-0.08886719,-0.12207029999999999,0.3662109,0.3662109,89.57703,-2.367554,-145.2008,17.35,-1.65,0.01666667,1
48319,0.041015630000000004,1.012207,-0.09619141,-0.1831055,-0.5493163999999999,-0.3051758,89.60999,-2.39502,-145.2338,59.41667,-89.64167,66.01667,1
49599,0.04052734,1.016602,-0.09765625,0.24414059999999999,-0.42724609999999996,0.0,89.52759,-2.389526,-145.2777,59.45833,-89.56667,65.79166,1
49899,0.04150391,1.012207,-0.08886719,-0.1831055,0.1831055,0.3662109,89.53308,-2.400513,-145.2722,17.28333,-1.541667,0.025,1
50139,0.0390625,1.013184,-0.09375000000000001,-0.1831055,0.7324219,0.3662109,89.58801,-2.460938,-145.2118,17.30833,-1.6,-0.008333334000000001,1
50419,0.041015630000000004,1.013672,-0.09375000000000001,0.0,0.0,-0.06103516,89.62646,-2.477417,-145.1788,59.48333,-89.725,65.925,1
50729,0.041015630000000004,1.011719,-0.09277344,0.0,-0.06103516,-0.06103516,89.65393,-2.455444,-145.2173,17.28333,-1.575,0.0,1
50969,0.04199219,1.013672,-0.09228516,-0.42724609999999996,0.0,0.0,89.62097,-2.438965,-145.2118,17.25833,-1.533333,-0.03333333,1
51279,0.04052734,1.013184,-0.09667969,0.0,0.12207029999999999,0.0,89.65393,-2.427979,-145.2722,17.25833,-1.541667,-0.03333333,1
51509,0.04003906,1.012695,-0.09179688,-0.06103516,0.1831055,0.0,89.63745,-2.416992,-145.2393,17.275,-1.591667,-0.08333334,1
51699,0.04003906,1.012207,-0.08398438,0.1831055,-0.3051758,-0.24414059999999999,89.60999,-2.416992,-145.1843,17.35833,-1.7,-0.1416667,1
51919,0.04589844,1.001953,-0.05908203,0.0,0.0,0.0,89.48914,-2.427979,-145.1953,17.325,-1.733333,0.225,1
52119,0.03564453,1.018066,-0.1015625,0.6103516,-0.42724609999999996,0.0,89.74182,-2.356567,-145.1953,17.225,-1.533333,0.1666667,1
52329,0.04150391,1.010742,-0.09960938,-0.3662109,0.24414059999999999,0.1831055,89.94507,-2.384033,-145.1678,59.39167,-89.625,65.95834,1
52579,0.04199219,1.007813,-0.08935547,-1.098633,0.4882813,0.06103516,89.82422,-2.400513,-145.036,17.425,-1.75,-0.075,1
52829,0.03808594,1.006348,-0.08691406,0.42724609999999996,-0.793457,0.3662109,89.62097,-2.37854,-144.9646,17.20833,-1.516667,-0.1333333,1
53139,0.04248047,1.013184,-0.08837891,-0.12207029999999999,-0.3051758,0.3051758,89.60449,-2.444458,-145.1678,59.35833,-89.725,65.81667,1
53439,0.03955078,1.013184,-0.08886719,0.0,-0.42724609999999996,-0.5493163999999999,89.599,-2.406006,-145.2557,59.325,-89.575,65.46667,1
53709,0.03759766,1.012695,-0.08935547,-0.12207029999999999,0.3051758,0.1831055,89.58801,-2.362061,-145.3107,17.275,-1.575,0.0,1
53949,0.02294922,1.005371,-0.09814453000000001,0.3662109,-1.6479489999999999,0.24414059999999999,89.75281,-2.318115,-145.5249,59.45833,-89.49167,65.36667,1
54259,0.03955078,1.003906,-0.08056641,-0.6103516,1.098633,0.42724609999999996,89.74182,-2.39502,-145.5743,17.15,-1.508333,-0.31666669999999997,1
54559,0.04296875,1.011719,-0.08007813,-1.403809,0.5493163999999999,0.6713867,89.40125,-2.548828,-145.0525,59.28333,-89.75833,65.55,1
54859,0.04296875,1.020996,-0.09277344,-0.4882813,-0.24414059999999999,-0.24414059999999999,89.32434,-2.609253,-145.08,59.21667,-89.88333,65.41666,1
55139,0.04589844,1.014648,-0.08642578000000001,0.4882813,0.0,0.0,89.37378,-2.6202389999999998,-145.0909,17.30833,-1.441667,0.0,1
55379,0.04345703,1.018555,-0.08837891,-0.5493163999999999,-0.24414059999999999,0.0,89.40674,-2.60376,-145.1569,17.28333,-1.375,-0.04166667,1
55719,0.05224609,1.005859,-0.07177734,-0.1831055,-0.4882813,0.42724609999999996,89.31335,-2.6696779999999998,-145.2832,17.35,-1.45,0.25,1
55929,0.046875,1.010254,-0.0859375,1.159668,-0.24414059999999999,0.12207029999999999,89.56055,-2.713623,-145.3052,17.3,-1.4583329999999999,0.1,1
56149,0.05517578,1.01123,-0.09570313,1.037598,0.5493163999999999,-0.3051758,89.74182,-2.702637,-145.3107,17.30833,-1.633333,0.1,1
56349,0.04736328,1.004883,-0.08007813,1.281738,0.0,0.7324219,89.85168,-2.768555,-145.2667,17.10833,-1.416667,0.25,1
56569,0.05224609,1.013184,-0.09326172,15.13672,4.272461,-4.638672,91.6095,-2.504883,-144.7119,59.24166,-89.13333,67.53333,1
56809,-0.060546880000000004,1.043457,-0.2324219,4.577637,-13.00049,-5.615234,94.13635,-1.384277,-144.4812,17.36667,-4.183333,-0.25,1
57059,0.03125,1.240723,-0.328125,-56.45752,4.638672,12.45117,89.41772,-2.768555,-145.1514,18.95833,-1.433333,-15.03333,1
57369,0.08154297,1.165039,0.32470699999999997,-49.68262,-3.540039,2.380371,67.29675,-7.959595,-142.0258,53.875,-93.68333,46.34167,1
57669,0.1137695,0.7207030999999999,0.3115234,19.47021,-14.52637,-9.643555,63.20984,-9.025269,-144.97560000000001,53.55,-92.86667,41.16667,1
57939,0.2006836,0.7553711,0.390625,2.258301,-26.24512,-9.765625,66.01135,-8.393555,-150.3644,15.66667,5.725,1.825,1
58189,0.2924805,0.9677734,0.27050779999999996,-14.28223,-7.080078,-4.150391,66.30798,-9.63501,-155.3851,54.525,-91.30833,38.05,1
58489,0.05517578,0.9389647999999999,0.4223633,47.72949,-3.845215,6.774902,68.12073,-8.887939,-149.447,15.84167,5.141667,-1.716667,1
58789,0.03417969,1.048828,0.1645508,-14.03809,-52.73438,-24.4751,72.29553,-7.108154,-159.8895,56.35833,-89.925,38.125,1
59089,0.06933594,0.9526367,0.2563477,-2.746582,-33.14209,2.01416,71.40564,-8.75061,-174.8694,53.125,-87.84167,29.60833,1
59369,0.3359375,0.8110352,0.3505859,-11.71875,-15.80811,-7.019043,71.77368,-7.553101,179.566,15.84167,4.716667,-0.17500000000000002,1
59619,0.21777339999999998,0.9252929999999999,0.30224609999999996,-6.530762,-11.59668,-3.051758,71.44409,-9.953613,178.2642,16.025,3.908333,-1.525,1
59919,0.08642578000000001,1.012207,0.33251949999999997,24.35303,-34.5459,7.995605,72.68555,-8.898926,175.7208,17.925,5.883333,-2.666667,1
60259,0.23632809999999999,0.8730469,0.14697269999999998,-8.483887,-73.7915,-27.52686,75.10254,-7.619019,155.7751,16.325,1.091667,-2.083333,1
60469,-0.01806641,0.9204102,0.1054688,-16.17432,-55.11475,2.990723,73.18542,-7.838745,144.256,22.325,3.175,-2.041667,1
60679,0.3085938,1.167969,0.2421875,10.98633,29.29688,3.967285,75.38818,-5.081177,141.2292,38.56667,-79.99167,13.06667,1
60919,0.1381836,0.9321288999999999,0.19042969999999998,-5.981445,32.71484,9.82666,74.53125,-8.146362,148.2495,13.60833,1.883333,-2.191667,1
61199,0.2875977,1.054688,0.2045898,1.708984,23.98682,-11.59668,71.50452,-6.674194,153.5724,21.225,11.825,7.383333,1
61399,0.1577148,0.7319336,0.26318359999999996,-19.71436,-56.15234,-34.85107,75.26733,-8.986816,143.009,36.45,-80.91666,12.7,1
61659,0.09912109000000001,0.8945312999999999,0.109375,-37.53662,-38.20801,11.2915,74.53125,-8.54187,133.9618,19.55833,4.616667,-0.4333333,1
61899,0.3823242,1.201172,0.3359375,11.35254,32.16553,13.73291,74.59717,-4.471436,130.7373,34.23333,-79.43333,10.14167,1
62169,0.1962891,0.9057617,0.2241211,0.4882813,17.21191,-0.42724609999999996,74.95422,-8.305664,137.9443,15.125,1.925,-1.625,1
62419,-0.347168,1.363281,0.5498046999999999,29.29688,-3.417969,21.1792,75.62988,-6.59729,143.855,39.38334,-83.04166,12.56667,1
62719,0.10888669999999999,0.8295897999999999,0.1772461,-3.4790039999999998,-61.64551,-16.17432,76.745,-8.783569,128.3752,14.80833,1.391667,-5.5,1
63019,0.42626949999999997,1.395508,0.6938477,26.30615,4.638672,-52.49023,75.22888,-8.602295,117.8009,25.30833,-80.5,8.9,1
63319,0.22119139999999998,0.8881836,0.1992188,4.455566,42.23633,20.56885,75.73975,-10.79407,133.2642,32.60833,-82.30833,9.966666,1
63599,0.26220699999999997,0.9873046999999999,0.22558589999999998,7.507324,44.55566,0.42724609999999996,72.55371,-9.503174,142.6849,18.41667,5.325,4.016667,1
63849,0.11083979999999999,0.9062500000000001,0.29443359999999996,-12.87842,-11.41357,-26.67236,76.43188,-11.93115,146.6071,12.925,4.158333,1.8666669999999999,1
64149,0.1621094,1.023926,0.246582,-0.9155272999999999,-38.26904,-8.483887,74.36646,-10.65674,140.8667,22.38333,10.125,2.183333,1
64489,0.2182617,0.7470703,0.34130859999999996,11.71875,39.00146,33.08105,76.79993,-6.37207,145.9534,14.09167,3.0,-1.4583329999999999,1
64689,0.09375000000000001,0.859375,0.05859375,-13.5498,35.40039,5.493164,75.00366,-7.630005,154.0833,17.35,3.033333,0.625,1
64899,-0.03173828,0.9472655999999999,0.4233398,-4.638672,-30.0293,25.57373,77.2998,-10.14038,158.0988,44.525,-88.1,17.175,1
66139,0.07470703000000001,1.20166,0.3364258,6.164551,-32.83691,30.57861,76.97021,-10.70068,166.1353,46.45,-89.975,20.19167,1
66379,0.1689453,0.7680663999999999,0.16650389999999998,7.019043,-40.83252,-20.01953,77.39319,-8.261719,157.3077,14.125,0.6333333,-3.883333,1
66609,0.08691406,1.131836,0.2670898,13.73291,-33.3252,-17.8833,75.14099,-9.052734,151.1169,24.81667,10.95833,1.4,1
66829,0.300293,1.279297,0.3666992,7.080078,30.33447,13.85498,77.22839,-3.554077,151.3916,11.575,4.875,2.391667,1
67049,0.1103516,0.8823242,0.06933594,-19.71436,27.34375,3.723145,74.15222,-6.937866,164.2511,20.33333,1.308333,-0.17500000000000002,1
67319,-0.3769531,1.27002,0.5893554999999999,45.89844,-12.146,30.2124,75.66284,-7.619019,167.5525,23.18333,6.283333,-0.55,1
67529,0.04833984,0.6284179999999999,0.2993164,-10.98633,-36.92627,-30.70068,76.99768,-9.393311,159.7083,14.35,2.408333,-0.5166666999999999,1
67809,-0.01904297,1.275879,0.09472656,1.586914,-27.89307,-10.86426,74.7345,-9.613037,149.1669,18.75,11.88333,1.366667,1
68049,0.2724609,0.7158203,0.2636719,16.90674,52.67334,33.93555,76.20117,-8.12439,156.0114,45.04167,-87.95834,17.15,1
68359,0.13916019999999998,1.193359,0.04394531,4.455566,30.0293,-5.92041,73.01514,-8.289185,169.2444,20.53333,11.9,7.083333,1
68659,0.08349609,0.5732421999999999,0.2612305,-6.408691,-34.91211,-25.57373,75.41016,-9.942627,162.4493,45.51667,-88.43333,18.225,1
68959,-0.1791992,1.044434,0.056640630000000004,18.06641,-23.74268,-11.84082,74.93774,-9.711914,154.4788,42.4,-87.74167,16.49167,1
69239,0.1298828,0.8525391,0.3081055,-14.28223,54.38232,51.94092,76.10779,-5.674438,160.5157,13.43333,2.05,-0.5,1
69479,0.17041019999999998,0.8935546999999999,0.16650389999999998,2.01416,29.60205,5.981445,72.25159,-7.503662,174.5728,17.56667,7.408333,4.7,1
69819,0.08300781,0.7861328,0.30957029999999996,-29.54102,-50.90332,-34.11865,75.95947,-10.62378,169.8047,13.26667,3.375,1.408333,1
70029,0.09179688,0.8393554999999999,0.0390625,-28.32031,-25.08545,16.78467,75.56396,-8.789063,159.7302,17.65833,4.316667,1.675,1
70239,0.4775391,1.446777,0.6240234,17.02881,-15.31982,-55.84717,75.48157,-8.629761,153.7756,17.9,7.1,0.5166666999999999,1
70449,0.2192383,0.7436522999999999,0.3051758,5.92041,40.22217,41.50391,75.52002,-7.218018,159.873,14.85,2.258333,-1.816667,1
70659,0.22998049999999998,1.058594,0.1279297,13.30566,29.60205,-0.5493163999999999,71.73523,-8.00354,170.9912,50.69167,-88.20834,21.28333,1
70899,0.2651367,1.549316,0.34179689999999996,-13.30566,-63.35449,-6.103516,78.51379,-12.51892,167.97,9.233334,4.933333,-1.691667,1
71149,0.1679688,1.011719,0.08837891,-14.83154,-20.01953,2.441406,75.8606,-10.67871,158.7579,43.74166,-89.5,19.09167,1
71399,0.13476559999999999,1.02002,0.4208984,-16.96777,41.99219,-20.1416,78.48083,-4.152832,158.8074,11.85833,5.516667,-0.9666665999999999,1
71669,0.15917969999999998,0.8867187999999999,0.140625,-4.516602,55.41992,23.74268,76.65161,-7.706909,170.1453,14.59167,0.85,-2.966667,1
71879,0.15917969999999998,0.8867187999999999,0.140625,-4.516602,55.41992,23.74268,76.65161,-7.706909,170.1453,19.25,12.13333,7.866667,1
72099,0.07470703000000001,0.5869141,0.27099609999999996,-25.93994,-36.74316,-29.78516,76.60767,-10.07996,172.4799,13.14167,2.266667,-0.5083333,1
72379,-0.1733398,1.225098,0.3535156,10.80322,14.70947,-13.30566,76.38245,-10.5304,165.553,47.86666,-90.90833,22.08333,1
72639,0.2265625,0.7534179999999999,0.3457031,-1.403809,80.81055,37.47559,78.46436,-6.838989,174.2102,15.28333,2.225,0.9916666999999999,1
72889,0.20214839999999998,1.040039,0.10058589999999999,-1.098633,32.16553,-3.967285,74.53125,-7.492676,-168.7939,56.93333,-93.025,33.575,1
73189,-0.005859375,0.6669921999999999,0.31689449999999997,-34.79004,-19.28711,-21.78955,79.05212,-8.827515,-171.9415,54.90833,-94.26667,34.05833,1
73479,-0.02294922,1.1010739999999999,0.12207029999999999,0.793457,-39.30664,-18.43262,75.24536,-7.542114,175.0232,52.25834,-90.875,25.125,1
73789,0.2426758,0.684082,0.1557617,8.605957,-4.333496,14.4043,77.01965,-5.6524659999999995,171.1725,53.46667,-89.74167,24.35,1
74119,0.22070309999999999,1.023926,0.2519531,2.990723,-4.760742,9.460449,72.47681,-5.515137,177.561,17.85,7.233333,-0.9583332999999999,1
74349,0.20507809999999999,0.9580078,0.2617188,-33.56934,-48.40088,-19.34814,75.00916,-11.19507,168.2831,12.425,3.325,0.9,1
74569,0.1401367,0.8759766,0.04052734,-17.21191,-35.88867,-1.953125,74.70154,-9.799805,158.0328,15.50833,4.733333,0.8333332999999999,1
74779,0.33349609999999996,1.168945,0.41210939999999996,8.850098,35.52246,25.5127,75.56946,-6.558838,156.1761,46.88334,-87.00833,16.575,1
75019,0.09130859,0.9213867,0.1464844,-5.737305,45.95947,0.1831055,75.32776,-10.07996,166.9867,15.775,1.883333,-1.975,1
75289,0.2514648,1.067871,0.08691406,12.39014,55.78613,9.765625,73.39417,-7.954102,176.7096,20.46667,8.025,8.283334,1
75509,-0.02929688,0.6962891,0.2797852,-1.8310549999999999,-14.5874,-15.38086,78.53027,-10.00305,-179.9231,14.15833,2.233333,-1.683333,1
75789,-0.1176758,1.139648,0.1015625,3.78418,-17.51709,-7.93457,75.00366,-10.78857,175.0012,50.3,-91.93333,24.825,1
76089,0.1025391,0.918457,0.34130859999999996,-1.7700200000000001,51.57471,44.92188,76.65161,-6.663208,178.7805,16.58333,2.858333,0.7416667,1
76340,0.1958008,0.9467772999999999,0.1489258,-9.033203,37.29248,-8.361816,74.53674,-7.283936,-169.0192,17.525,2.191667,0.08333334,1
76609,-0.07763672,0.9389647999999999,0.47363279999999996,-4.211426,-5.187988,18.06641,76.09131000000001,-8.410034,-163.2404,56.34167,-95.16666,37.00834,1
76879,0.06005859,0.9033203,0.2558594,-7.202148,-42.78564,-12.81738,74.37195,-7.805786,-169.3433,14.88333,2.8083329999999997,-2.241667,1
77119,-0.03955078,1.061523,0.09570313,-11.71875,-41.3208,-4.516602,70.57068,-10.59631,-177.561,52.35,-91.28333,25.25,1
77419,0.2080078,0.8388671999999999,0.2583008,17.7002,-7.019043,8.300781,75.8551,-6.789551,179.7638,55.36666,-91.50833,28.01667,1
77699,0.3051758,0.9560546999999999,0.1137695,0.12207029999999999,21.30127,-7.202148,75.09155,-5.50415,-179.2419,18.15833,2.608333,1.183333,1
77949,0.15136719999999998,1.211426,0.2470703,-16.17432,-59.69238,-1.6479489999999999,79.37073,-10.45349,179.4287,12.05,4.9,-1.233333,1
78249,0.2768555,0.8994141,0.1635742,-23.19336,-18.79883,22.15576,76.67358,-11.12915,166.3385,17.825,1.508333,-0.25,1
78589,0.4228516,1.217773,0.3300781,21.42334,70.06836,18.98193,78.12378,-7.855225,170.8594,13.75833,6.441667,3.15,1
78789,0.3046875,0.9125977,0.24462889999999998,6.408691,126.4038,34.729,78.07434,-11.25549,-167.7887,15.0,3.325,3.816667,1
79009,-0.1191406,1.091309,0.2661133,8.666992,141.9678,23.98682,75.41016,-10.49194,-122.7942,51.24166,-100.6083,61.30833,1
79249,-0.06152344,0.8886719,0.20166019999999998,4.02832,105.7739,40.95459,72.04285,-10.10193,-99.79431,17.175,4.033333,3.008333,1
79519,-0.001464844,1.041992,0.2646484,11.84082,61.76758,31.18896,71.79565,-10.6073,-82.51282,16.73333,5.9,0.9583332999999999,1
79729,-0.08789063,0.9750977,0.159668,18.00537,88.50098,40.64941,70.54321,-10.20081,-54.217530000000004,12.85,-99.325,72.01667,1
79979,0.3828125,0.8637695,0.3212891,-13.85498,49.01123,4.638672,72.37793,-9.025269,-41.28113,17.7,3.325,2.966667,1
80239,0.1157227,0.9750977,0.1015625,-0.3051758,49.43848,19.16504,71.05408,-12.80457,-20.35217,-5.45,-91.51667,61.7,1
80499,0.21386719999999998,1.03125,0.16601559999999999,11.90186,38.57422,2.502441,70.54871,-11.78833,-11.03027,16.6,6.433333,1.116667,1
80739,0.1103516,0.7431641,0.2797852,6.835938,-13.91602,-24.29199,75.22339,-12.04651,-14.66675,-6.675,-90.25833,61.15833,1
81049,0.0009765625,1.262207,0.1235352,0.0,-14.46533,-12.69531,75.10803,-11.04675,-19.95117,14.79167,7.516667,-2.033333,1
82329,-0.05371094,1.303223,0.1733398,5.065918,-19.59229,-12.87842,76.32751,-11.05225,-21.81335,11.09167,6.3,-2.241667,1
82580,0.16259769999999998,0.8544921999999999,0.1694336,10.80322,38.57422,20.44678,77.09106,-8.986816,-12.27173,14.31667,2.216667,-2.258333,1
82839,0.4301758,1.043457,0.2045898,6.713867,10.80322,8.056641,73.0481,-7.7618409999999995,-2.9608149999999998,-6.241667,-90.375,55.16667,1
83159,0.1870117,0.8989258,0.265625,-25.81787,-39.55078,-32.40967,77.11304,-11.82129,-8.360596,13.49167,3.4,1.425,1
83399,0.1601563,1.004883,0.2470703,-0.3051758,-34.97314,-4.333496,75.42664,-11.55762,-21.15967,23.78333,5.725,0.675,1
83669,0.152832,0.8154296999999999,0.3232422,2.624512,35.03418,44.67773,75.87708,-6.487427,-20.70923,14.8,3.316667,0.1333333,1
84049,0.4248047,0.9643554999999999,0.2382813,13.00049,21.66748,7.202148,72.67456,-7.822266,-8.025513,-5.391667,-90.99167,57.68333,1
84309,0.171875,0.9501953,0.2841797,-29.05273,-41.87012,-35.7666,76.96472,-11.35986,-12.78259,12.8,3.591667,0.8666667,1
84549,0.06445313,0.7978516,0.004882813000000001,-14.34326,-40.22217,4.089355,76.40442,-9.179077,-22.65381,16.85,4.15,0.9416667,1
84759,0.4072266,0.8208008,0.5214844,-7.995605,48.70605,-9.94873,75.60791,-6.28418,-26.66931,1.025,-94.33334,66.1,1
84999,0.21386719999999998,0.8095703,0.1679688,-1.220703,46.81396,20.26367,75.71777,-10.31067,-15.5072,14.54167,1.0,-1.216667,1
85249,-0.1113281,1.04248,0.7382812999999999,70.55664,21.78955,14.77051,73.50952,-8.272705,-4.070435,-6.366667,-89.85,56.11666,1
85499,0.08886719,0.6245117,0.2827148,-19.40918,-45.89844,-35.33936,76.42639,-10.02502,-12.47498,12.625,2.516667,0.4,1
85769,0.044921880000000004,0.8837891,0.08398438,-24.59717,-40.83252,18.00537,75.90454,-10.49744,-20.44556,20.80833,1.491667,0.625,1
85979,0.044921880000000004,0.8837891,0.08398438,-24.59717,-40.83252,18.00537,75.90454,-10.49744,-20.44556,15.61667,4.441667,-1.758333,1
86199,0.05908203,0.8583984,0.07226563,-13.48877,41.68701,0.8544921999999999,74.73999,-8.442993,-10.6073,16.05,3.241667,-1.791667,1
86469,0.19824219999999998,1.05127,0.3745117,7.446289,-54.26025,27.52686,75.70679,-9.585571,-4.9273679999999995,-6.683333,-89.41666,58.125,1
86749,0.1289063,0.7998046999999999,0.20947269999999998,13.79395,-54.80957,-19.28711,76.54724,-8.948364,-17.07825,13.275,0.2583333,-3.016667,1
86979,0.6669921999999999,1.5512700000000001,0.6259766,16.72363,3.845215,-49.98779,76.38794,-8.959351,-30.05859,2.858333,-94.38333,68.88333,1
87289,0.12744139999999998,0.8764647999999999,0.1542969,-0.6103516,35.5835,19.89746,75.50354,-8.849487,-19.55566,-1.8,-92.60833,62.9,1
87569,0.1884766,0.9594727,0.1855469,15.01465,33.08105,5.249023,72.323,-7.619019,-12.32117,21.66667,10.08333,7.908333,1
87810,0.1103516,0.640625,0.3154297,-17.45605,-41.07666,-27.40479,76.56921,-11.05774,-17.77039,12.19167,2.758333,-1.325,1
88149,-0.03564453,1.25293,0.1621094,5.554199,-20.38574,-7.019043,75.4541,-10.9259,-28.58093,11.68333,7.4,-3.85,1
88349,0.1713867,0.8916016,0.28613279999999996,-14.89258,49.56055,29.66309,74.79492,-6.047974,-26.10901,13.00833,3.741667,3.066667,1
88569,0.04736328,0.9072266,0.1420898,-10.86426,44.55566,-1.037598,74.34448,-9.30542,-15.56763,16.00833,3.308333,-0.09166667,1
88789,0.4165039,1.09375,0.06298828000000001,-9.155273,17.27295,4.455566,72.02087,-6.9104,-9.832764,18.575,5.908333,1.9000000000000001,1
88990,0.03076172,0.8261719,0.22558589999999998,11.84082,-63.29346,-28.01514,77.31628,-8.580322,-19.15466,-1.033333,-92.30833,65.81667,1
89239,0.1723633,0.9643554999999999,0.18603519999999998,-10.49805,-32.16553,-1.403809,75.38269,-9.223022,-28.2843,22.25,2.783333,0.5083333,1
89489,0.1679688,0.7851562999999999,0.3535156,-3.967285,31.18896,43.88428,75.84961,-5.20752,-28.46558,14.95,2.425,-1.083333,1
89799,0.2651367,0.9702147999999999,0.2304688,-2.441406,34.24072,-4.638672,72.63611,-6.553345,-18.47351,-0.1833333,-94.13333,61.16667,1
90099,0.1333008,0.730957,0.30273439999999996,-27.89307,-52.30713,-43.5791,75.32776,-10.76111,-26.77368,0.30000000000000004,-93.21667,66.675,1
90379,0.04345703,0.8149413999999999,-0.017089840000000002,-32.95898,-34.42383,11.35254,74.58069,-9.788818,-37.650150000000004,19.275,4.266667,1.775,1
90619,0.2202148,1.214844,0.15039059999999999,2.502441,45.53223,22.82715,75.08057,-6.064453,-39.84192,6.591667,-96.34167,69.225,1
90919,0.2001953,0.9077147999999999,0.1611328,-15.13672,34.48486,2.624512,72.75146,-7.932129,-24.45007,18.66667,2.633333,-0.7083332999999999,1
91219,0.1835938,0.8686522999999999,0.27832029999999996,-24.84131,-23.37646,-33.38623,76.69556,-11.90918,-25.6311,-1.233333,-91.95,67.79166,1
91519,0.1953125,1.115234,0.3051758,4.333496,-27.34375,-8.483887,74.36096,-11.54663,-36.16699,2.7,-93.71667,70.84167,1
91799,0.18212889999999998,1.083008,0.4638672,-6.652832,46.81396,5.432129,75.06958,-5.322876,-35.06836,12.13333,5.158333,1.108333,1
92039,0.1577148,0.8754883,0.07617188,-19.65332,36.01074,-3.356934,71.86157,-8.02002,-22.08801,18.31667,2.625,2.175,1
92349,0.2802734,1.378906,0.41113279999999996,-19.65332,-76.59912,-14.03809,76.28357,-11.29944,-23.9502,10.39167,4.783333,0.025,1
92689,0.1640625,0.9750977,0.09179688,-15.93018,-42.90771,1.525879,74.69055,-9.777832,-39.51233,19.2,1.491667,1.908333,1
92889,0.34912109999999996,0.7871094,0.4091797,-42.11426,49.92676,-48.70605,76.36597,-3.878174,-42.94006,15.40833,4.683333,-1.141667,1
93109,0.09912109000000001,0.7714844,0.03369141,-12.69531,38.69629,-3.173828,73.10852,-7.684937,-34.12903,4.725,-95.98333,67.68333,1
93349,0.05126953,1.004395,0.6582030999999999,46.26465,-10.25391,13.30566,72.45483,-6.427002,-28.30078,27.475,4.891667,-1.508333,1
93619,0.02734375,0.7026367,0.2578125,-24.23096,-42.60254,-37.90283,75.51453,-9.272461,-38.15552,12.13333,2.525,-0.325,1
93829,-0.02050781,1.280273,-0.028808590000000002,5.67627,-9.70459,-19.47021,74.32251,-8.860474,-51.06995,12.2,-97.35833,73.90833,1
94079,-0.01416016,1.05127,0.1914063,0.9765625,34.05762,40.89355,74.99268000000001,-4.169312,-50.11963,14.4,2.833333,1.85,1
94339,0.3125,0.9501953,0.17871089999999998,-2.258301,31.67725,12.51221,71.74072,-6.899414,-40.16602,8.116667,-97.19167,68.48333,1
94599,0.1958008,1.208496,0.3842773,-0.6713867,-58.77686,44.31152,75.40466,-10.40405,-39.01245,14.83333,5.3,-4.8,1
94839,0.015625,0.7636719,-0.006347656,-19.89746,-41.56494,3.78418,75.56946,-10.1239,-54.92065,13.325,-97.2,74.075,1
95149,-0.04248047,1.155762,0.3774414,-6.469727,62.5,3.112793,75.13,-4.367065,-58.07922,12.00833,5.816667,2.95,1
95449,0.15039059999999999,0.8510742,0.09814453000000001,-21.24023,32.65381,2.319336,72.43286,-7.3718259999999995,-43.07739,9.308333,-96.80833,69.71667,1
95749,0.31787109999999996,1.143066,0.41992189999999996,-38.0249,-54.50439,-23.74268,75.89355,-12.01904,-45.19226,8.325,-94.73333,72.88333,1
96019,0.1098633,0.7348633,0.05517578,-15.01465,-49.74365,-4.760742,75.62988,-10.38757,-56.1731,16.8,4.725,-1.9000000000000001,1
96269,0.3115234,0.8076171999999999,0.4384766,-20.08057,49.31641,-26.36719,74.98718,-5.515137,-63.93494,13.58333,6.25,-0.5333333,1
96579,0.09716797,0.8422852,0.03808594,-16.17432,57.25098,0.8544921999999999,72.60864,-8.442993,-47.2467,15.96667,2.558333,1.616667,1
96879,0.1723633,1.2729489999999999,0.46582029999999996,-30.51758,-57.12891,-7.446289,76.24512,-11.75537,-48.03772,10.94167,4.45,0.325,1
97220,0.1381836,0.9443359,0.1181641,-15.56396,-35.70557,4.943848,75.14099,-10.74463,-60.52917,22.09167,2.116667,0.375,1
97459,0.08642578000000001,0.8310546999999999,0.3110352,-9.94873,36.56006,49.68262,75.19592,-5.668945,-59.43054,20.15833,-95.70834,73.38333,1
97699,0.121582,0.8300780999999999,0.04443359,-17.8833,33.75244,1.159668,73.39966,-8.173828,-53.25073,16.60833,3.358333,1.366667,1
98929,0.19775389999999998,0.8896484,0.2104492,8.300781,28.50342,-0.4882813,71.12,-6.28418,-54.20105,18.25,12.20833,8.425,1
99129,0.2124023,1.497559,0.3222656,-2.685547,-60.48584,12.08496,76.43738,-10.89294,-56.28296,11.56667,4.308333,-2.8083329999999997,1
99349,0.14306639999999998,0.8598633,0.1171875,-38.14697,-52.36816,8.056641,74.40491,-11.42029,-72.35596,22.20833,-97.2,72.4,1
99599,0.22558589999999998,0.7377929999999999,0.215332,-24.29199,29.96826,-37.41455,74.90479,-7.575073,-75.17395,16.59167,4.208333,-2.958333,1
99869,0.20556639999999998,0.7568359,0.2011719,3.540039,35.27832,22.52197,73.24036,-8.85498,-67.60437,13.63333,1.291667,-1.641667,1
100079,0.20556639999999998,0.7568359,0.2011719,3.540039,35.27832,22.52197,73.24036,-8.85498,-67.60437,16.7,9.616667,6.116667,1
100289,0.0859375,0.715332,0.2666016,-19.71436,-30.63965,-26.00098,75.15747,-11.34888,-67.06604,12.90833,2.966667,0.85,1
100569,0.1333008,1.109863,0.1870117,12.87842,-0.6103516,-17.39502,74.14124,-11.71692,-75.42114,22.2,-99.425,72.86667,1
100849,0.1538086,1.035645,0.21875000000000003,4.577637,42.23633,28.01514,74.83337,-6.311646,-72.74048,13.05833,4.083333,1.733333,1
101079,0.16650389999999998,0.9272461,0.1137695,-3.356934,26.24512,0.12207029999999999,71.80115,-8.129883,-58.44177,15.64167,-99.81667,69.23333,1
101389,0.2529297,0.984375,0.3242188,-23.19336,-38.81836,-30.33447,76.21765,-11.1676,-61.61133,15.45833,-99.125,73.13333,1
101669,0.03125,0.7695312999999999,0.03759766,-20.1416,-33.20313,8.483887,76.38245,-9.860229,-69.9884,17.08333,4.616667,-0.5833332999999999,1
101910,0.3842773,1.077637,0.4541016,-17.45605,28.62549,-16.54053,75.12451,-5.322876,-75.1355,12.71667,5.333333,0.6416666999999999,1
102249,0.08837891,0.8789062999999999,0.09375000000000001,0.7324219,20.20264,-3.2958979999999998,71.6803,-8.695679,-63.02307,18.05833,2.891667,1.116667,1
102449,-0.3212891,1.26123,0.6137695,65.73486,-20.81299,42.96875,74.4873,-8.684692,-61.84204,22.35,5.741667,-1.241667,1
102669,0.0625,0.6748046999999999,0.25439449999999997,2.380371,-23.92578,-25.87891,76.73401,-9.371338,-68.03284,14.55,1.966667,-0.85,1
102879,0.1113281,0.9389647999999999,0.1416016,-19.83643,-19.22607,8.178711,74.69055,-10.37109,-72.04834,22.65,4.3,1.558333,1
103099,0.1259766,0.8276367,0.3369141,-4.455566,53.58887,50.354,74.39941,-5.762329,-68.83484,22.51667,-100.2583,73.925,1
103329,0.04248047,0.8037109,0.056640630000000004,-10.80322,42.60254,-5.432129,73.54797,-8.448486,-59.55139,15.34167,3.2,-0.05833333,1
103579,0.1953125,1.459473,0.3520508,2.319336,-54.87061,32.2876,77.16797,-11.63452,-56.53015,13.88333,-96.51667,75.16666,1
103829,0.09130859,0.8061522999999999,0.13134769999999998,3.601074,-48.46191,-18.12744,77.42065,-9.338379,-66.07178,12.95,0.275,-4.525,1
104099,0.10498049999999999,1.107422,0.2480469,9.94873,-30.2124,-19.28711,74.75647,-10.78857,-74.4928,22.6,9.25,2.075,1
104330,0.4453125,0.7084961,0.28125,17.76123,57.37305,32.34863,75.95398,-7.833252,-72.3175,22.65833,-98.31667,73.65833,1
104589,0.39550779999999996,0.9399413999999999,0.20556639999999998,1.7700200000000001,10.49805,6.9580079999999995,71.42761,-8.22876,-55.34363,15.18333,-97.65,70.50833,1
104889,0.1655273,0.9106445,0.2841797,-23.07129,-21.05713,-28.56445,75.88806,-12.67822,-58.55164,12.48333,2.8083329999999997,1.9000000000000001,1
105139,0.2338867,1.076172,0.3354492,2.685547,-2.990723,-16.29639,74.86084,-11.37634,-68.51074,22.25833,10.55,2.508333,1
105399,0.3139648,0.6787109,0.27099609999999996,20.99609,38.26904,26.48926,74.729,-7.498169,-62.04529,18.01667,-98.575,72.13333,1
105719,0.1210938,0.8754883,0.08447266,-15.74707,25.87891,-1.586914,71.9165,-6.410522,-54.28894,18.91667,2.633333,-0.2583333,1
105959,0.2270508,0.9931641,0.3662109,-27.89307,-40.16113,-20.50781,75.89905,-11.1676,-58.07373,11.40833,3.858333,1.2,1
106239,0.08349609,0.8530272999999999,0.2558594,-19.22607,-36.68213,15.44189,73.16895,-11.74988,-70.98267,29.5,6.1,-0.1333333,1
106609,0.2358398,0.6333008,0.2695313,20.81299,38.26904,26.18408,70.46631000000001,-10.37659,-62.33643,15.825,-100.15,69.44167,1
106869,0.2392578,0.9453125,0.1879883,14.70947,27.52686,-10.68115,70.32898,-8.355103,-54.26147,16.09167,5.575,2.1,1
107119,0.1694336,1.34668,0.375,26.55029,-63.5376,39.73389,75.97046,-11.4093,-55.66223,14.64167,5.608333,-4.091667,1
107329,0.002929688,0.730957,-0.02783203,-24.4751,-37.53662,14.5874,75.46509,-11.07971,-67.86255,18.84167,-98.61667,74.18333,1
107569,0.5585938,1.207031,0.394043,10.80322,9.094238,-57.55615,76.745,-8.10791,-73.08105,16.08333,4.65,-1.891667,1
107809,0.08251953000000001,0.809082,0.1557617,-10.86426,37.78076,10.25391,72.94373,-8.860474,-61.22681,17.725,-98.65,71.78333,1
108059,0.3266602,1.041992,0.06347656,-22.64404,10.80322,-1.159668,70.18066,-7.058716,-55.59082,21.16667,8.975,3.966667,1
108340,0.05078125,0.7700195,0.22949219999999998,9.82666,-39.0625,-16.96777,74.75098,-10.5304,-63.7207,18.03333,-97.89167,72.96667,1
108649,0.5219727,1.5175779999999999,0.6357421999999999,12.87842,17.57813,-41.01563,74.16321,-10.78857,-74.10278,19.76667,9.208333,-0.8666667,1
108939,0.175293,0.8398437999999999,0.1601563,-1.8310549999999999,55.05371,19.47021,73.65234,-9.805298,-61.3092,16.175,-97.81667,70.68333,1
109249,-0.1572266,1.234375,0.5581054999999999,46.93604,-15.99121,55.66406,74.4928,-10.59631,-51.60828,20.15833,7.45,-3.741667,1
109579,0.08496094,0.7768554999999999,0.10693359999999999,-8.483887,-33.26416,0.6103516,77.21741,-10.24475,-63.9624,15.775,2.766667,-1.341667,1
109859,0.33398439999999996,0.8457030999999999,0.4609375,-19.89746,39.48975,-41.68701,76.64612,-5.059204,-68.92273,14.96667,5.666667,-0.9166667,1
110179,0.09082031,0.8144530999999999,0.08544922,-22.70508,36.49902,3.173828,73.40515,-7.108154,-58.15613,15.975,2.858333,0.9500000000000001,1
110459,0.1318359,1.424316,0.3354492,-0.12207029999999999,-63.59863,17.63916,76.67358,-10.27222,-55.81604,13.64167,5.75,-3.508333,1
110799,0.05371094,0.8291016,0.04443359,-29.96826,-40.71045,5.065918,75.04211,-9.832764,-72.86682,16.95,4.85,1.741667,1
111069,0.3007813,1.200195,0.3500977,-4.272461,32.22656,-5.371094,76.06384,-4.916382,-78.63464,13.26667,5.225,2.008333,1
111439,0.1679688,0.8950195,0.1171875,9.887695,32.4707,3.540039,72.33948,-8.607788,-60.271,16.73333,-98.98333,70.35833,1
111679,0.2568359,1.529785,0.37304689999999996,-18.12744,-49.25537,-9.338379,76.79993,-12.16736,-61.21582,12.63333,4.766667,-0.6000000000000001,1
111949,0.05175781,0.7602538999999999,0.1806641,-6.9580079999999995,-33.3252,-2.197266,76.50879,-9.464722,-69.61487,14.83333,1.775,-3.066667,1
112159,0.04833984,1.147461,0.15087889999999998,3.356934,-12.146,-13.97705,74.5697,-11.02478,-75.09705,18.94167,6.7,-0.49166669999999996,1
112369,0.331543,0.7456054999999999,0.24853519999999998,17.08984,47.30225,26.42822,74.92676,-7.932129,-70.71899,21.83333,-98.81667,72.61667,1
112660,0.2514648,1.117188,0.09570313,-10.37598,15.38086,1.159668,71.14197,-7.871704,-59.2218,16.86667,-98.3,69.79166,1
112929,0.2416992,1.090332,0.328125,-20.01953,-32.65381,-25.39063,76.00891,-12.03552,-61.10596,13.13333,3.875,1.875,1
113169,0.1655273,1.027832,0.18164059999999999,-6.652832,-25.45166,-0.12207029999999999,74.45435,-11.16211,-70.25757,20.475,-97.35833,72.85833,1
113479,0.2358398,0.734375,0.3598633,2.685547,22.76611,39.0625,74.10278,-6.3555909999999995,-70.91125,15.475,3.125,0.2666667,1
113799,0.125,0.9428711,0.2270508,3.051758,20.38574,0.6103516,71.7572,-8.360596,-60.22705,14.43333,9.208333,6.266667,1
114079,0.03369141,0.7700195,0.30126949999999997,-10.25391,-62.43896,-29.60205,76.32751,-8.756104,-67.89551,21.68333,-96.85,72.85,1
114349,0.16650389999999998,0.8442383,0.1196289,-21.24023,-58.04443,2.258301,76.19568,-9.217529,-81.17798,20.21667,1.641667,2.666667,1
115569,-0.1074219,0.9946288999999999,0.1201172,-15.625,-18.61572,2.624512,77.45361,-10.88745,-75.19592,20.50833,5.233333,1.641667,1
115819,0.16650389999999998,0.8427734,0.3046875,-14.83154,43.396,31.67725,76.17371,-5.355835,-72.46033,13.98333,3.208333,-0.5666667,1
116099,0.1181641,0.9511719,0.1923828,-3.78418,24.23096,-2.01416,71.88904,-6.350098,-62.32544,17.85,3.35,1.6,1
116430,0.1699219,0.9257812999999999,0.3037109,-24.84131,-42.60254,-28.68652,76.87134,-9.838257,-69.2688,14.075,3.025,0.5750000000000001,1
116699,0.2084961,0.9414062999999999,0.1796875,3.173828,-24.23096,-0.5493163999999999,73.98193,-10.15686,-82.02393,22.25,7.125,3.15,1
117069,0.06298828000000001,0.8139647999999999,0.1679688,-9.58252,33.02002,18.79883,75.2124,-8.585815,-71.01563,23.46667,-98.45834,71.05,1
117309,0.1967773,0.8081054999999999,0.19384769999999998,4.394531,30.63965,0.24414059999999999,71.91101,-6.223755,-64.02283,25.6,10.475,7.841667,1
117579,0.2324219,1.396973,0.421875,-7.385254,-42.05322,0.3662109,77.00317,-12.39258,-66.18164,11.375,5.316667,-0.6583333,1
117799,0.03515625,0.7392578,0.1420898,-2.258301,-30.15137,-4.333496,77.43713,-9.94812,-71.24084,15.79167,1.016667,-4.125,1
117999,0.5161133,0.8857421999999999,0.38037109999999996,-15.25879,39.97803,-52.30713,77.11304,-6.937866,-77.67334,27.55,-97.6,72.175,1
118249,0.2275391,0.8217772999999999,0.1191406,6.164551,45.47119,14.16016,75.35522,-8.728638,-67.64832,14.36667,0.8666667,-1.9000000000000001,1
118499,-0.05957031,1.046875,0.7133788999999999,56.39648,-1.586914,6.225586,71.32874,-7.338867,-56.94763,26.93333,5.725,0.525,1
118799,0.07519531,0.7431641,0.29345699999999997,-19.71436,-48.58398,-37.65869,75.23438,-9.689941,-65.86853,13.125,2.058333,0.2083333,1
119020,0.07373047,1.132813,0.159668,11.96289,-36.49902,-17.94434,74.50378,-10.0415,-81.70532,29.11667,-97.4,71.38333,1
119289,0.21435549999999998,0.7104492,0.1645508,9.399414,47.60742,30.0293,74.96521,-8.047485,-74.43787,25.80833,-97.43333,70.35,1
119589,0.12744139999999998,0.8442383,0.190918,-2.685547,35.70557,0.12207029999999999,71.63086,-7.283936,-66.15417,17.76667,9.216666,5.833333,1
119829,0.1308594,0.7685546999999999,0.2563477,-36.43799,-48.52295,-34.30176,74.64111,-10.17334,-72.98767,25.60833,-97.55833,70.075,1
120099,0.1611328,1.227051,0.2124023,1.403809,-34.42383,-13.00049,73.23486,-9.645996,-88.43445,31.69167,-98.275,68.23333,1
120409,0.2773438,1.301758,0.2714844,5.554199,35.82764,17.45605,74.729,-4.663696,-87.84119,11.15,4.383333,2.633333,1
120659,0.1279297,0.8193359,0.07128906,-24.84131,25.45166,-2.258301,71.13098,-6.256714,-75.28931,20.55,1.725,-1.216667,1
120929,0.22216799999999998,0.8759766,0.2890625,-36.25488,-35.7666,-37.71973,74.61914,-10.99182,-80.82092,12.85833,2.6,2.716667,1
121299,0.34375000000000006,1.168457,0.6157227,17.27295,-18.37158,-39.85596,75.36621,-9.492188,-99.01428,37.59167,-97.89167,68.39167,1
121529,0.4462891,0.6835937999999999,0.2988281,17.08984,53.4668,36.25488,74.81689,-8.695679,-92.07642,13.94167,1.3333329999999999,-1.483333,1
121819,0.1831055,0.9414062999999999,0.08300781,-15.68604,29.11377,-3.90625,71.81213,-8.778076,-81.74377,19.825,2.091667,-0.8083332999999999,1
122019,0.3525391,1.077148,0.2646484,-7.141113,-36.86523,40.83252,74.76746,-10.6073,-80.16174,17.59167,6.283333,-4.225,1
122239,0.12744139999999998,0.8300780999999999,0.026367190000000002,-10.00977,-48.0957,-4.760742,76.28906,-9.541626,-96.95984,37.09167,-97.64167,68.35,1
122469,0.5698242,1.349609,0.8330078,4.821777,-4.394531,-38.14697,75.50903,-10.06897,-102.843,21.04167,8.658334,-2.975,1
122729,0.1103516,0.7753905999999999,0.1445313,-6.835938,61.34033,28.50342,73.8446,-9.750366,-88.61023,15.38333,1.216667,-0.2,1
123049,-0.3354492,1.358398,0.8471679999999999,60.91309,-21.91162,13.85498,73.24585,-6.976318,-79.57947,31.04167,-97.45,70.325,1
123349,0.03759766,0.7734375,0.05810547,-0.3051758,-54.50439,-20.32471,75.52551,-7.36084,-97.27844,15.05,1.391667,-1.75,1
123669,0.38037109999999996,0.8481445,0.5620117,-43.70117,28.25928,-38.33008,75.71228,-3.806763,-108.3527,13.9,4.816667,-2.058333,1
123949,0.1650391,0.8334961,0.01367188,-25.81787,31.25,-8.728026999999999,71.72424,-6.416016,-103.6011,42.88334,-98.625,62.625,1
124219,-0.22949219999999998,1.023926,0.9516602,85.20508,-23.55957,13.00049,72.02637,-5.394287,-100.6897,27.95,2.258333,-3.1,1
124470,0.06103516,0.7749022999999999,0.1103516,-12.45117,-69.15283,-13.06152,75.2179,-8.76709,-119.4763,14.65,1.983333,-4.216667,1
124759,0.30224609999999996,0.8461913999999999,0.48291019999999996,-24.78027,37.71973,-29.29688,74.67407,-6.745605,-129.2157,13.90833,6.316667,-1.858333,1
125099,0.1303711,0.8154296999999999,0.02783203,-7.446289,57.86133,-3.723145,71.54846,-8.695679,-115.5267,15.79167,3.5,2.6,1
125379,0.2836914,1.483887,0.3901367,-15.56396,-72.93701,-2.075195,75.59143,-11.73889,-113.7524,10.025,5.575,-1.175,1
125709,0.1386719,0.9052734,0.08398438,-24.90234,-54.13818,6.591797,73.526,-11.61804,-131.0175,24.125,8.733334,4.216667,1
126019,0.2036133,0.7280272999999999,0.3588867,-12.39014,54.50439,47.54639,73.57544,-7.564087,-130.5835,12.975,2.708333,0.75,1
126249,0.05712891,0.8256836,0.01269531,-12.146,44.12842,-7.019043,71.79565,-9.299927,-120.8551,16.41667,3.841667,1.591667,1
126469,0.2851563,1.504395,0.41113279999999996,-10.98633,-62.25586,-3.845215,75.34424,-12.2168,-121.6406,46.66667,-99.21667,60.06667,1
126709,0.06152344,0.7382812999999999,0.1494141,-11.04736,-49.43848,-8.728026999999999,75.11902,-9.981079,-131.7096,15.91667,2.35,-3.233333,1
126949,0.175293,0.7519530999999999,0.6064453,-32.83691,8.544922,-9.70459,73.73474,-6.091919,-139.7791,55.70833,-95.625,51.56667,1
127199,0.16650389999999998,0.8271484,0.2089844,3.78418,18.24951,22.3999,72.53723,-9.376831,-134.4287,13.1,1.658333,-2.258333,1
127469,0.2807617,1.005371,0.26318359999999996,10.86426,38.39111,-1.403809,69.73022,-8.574829,-129.0015,15.31667,9.05,8.741667,1
127699,0.0004882813,0.6328125,0.3037109,-18.43262,-34.05762,-35.40039,75.03113,-10.29968,-134.632,53.68333,-96.44167,54.7,1
127969,-0.1196289,1.326172,0.01464844,16.11328,-18.12744,-26.97754,76.16821,-9.942627,-146.4368,55.60833,-95.05,50.6,1
128259,0.06201172,0.8754883,0.21289059999999999,-17.63916,52.12402,45.16602,75.73975,-4.537354,-142.24,14.08333,1.975,1.883333,1
128509,0.1835938,0.9179687999999999,0.1450195,11.77979,19.16504,14.70947,72.34497,-6.7236329999999995,-130.4352,16.20833,0.8833333,0.6000000000000001,1
128779,0.08642578000000001,0.7827147999999999,0.2714844,-37.78076,-67.44385,-36.37695,76.40442,-9.970093,-140.4602,56.0,-94.325,52.14167,1
129049,0.1254883,0.8125,0.05517578,-36.8042,-53.77197,15.01465,75.60791,-9.700928,-154.325,21.60833,2.05,0.9166667,1
129329,0.028808590000000002,1.024902,0.1831055,-18.31055,53.89404,39.00146,75.60242,-4.608765,-155.3412,10.925,3.275,2.525,1
129599,0.06933594,0.8544921999999999,0.1567383,-6.04248,27.70996,6.591797,71.05408,-7.531128,-139.6362,17.825,4.841667,0.6083333,1
129939,0.2001953,0.8886719,0.27050779999999996,-34.48486,-58.34961,-43.15186,75.14099,-11.56311,-145.7062,13.44167,2.458333,1.416667,1
130209,0.2119141,1.027832,0.2680664,11.41357,-26.12305,-22.46094,73.46558,-11.38184,-163.0536,23.80833,9.475,3.125,1
130579,0.1152344,0.8696288999999999,0.1176758,-8.483887,48.0957,13.85498,73.47107,-9.761353,-151.8365,56.56667,-91.68333,42.49166,1
130849,0.16601559999999999,1.145996,0.1098633,-4.211426,27.40479,-1.89209,70.13123,-8.036499,-143.2892,21.75833,7.75,4.341667,1
131089,0.2817383,1.109863,0.40625000000000006,-31.31104,-41.19873,-19.47021,74.27307,-12.22778,-147.1289,11.56667,4.3,1.258333,1
131299,0.16259769999999998,1.064453,0.2358398,-15.86914,-46.93604,-1.89209,72.34497,-11.87073,-159.1095,53.26667,-92.15,37.16667,1
132519,0.375,1.430176,0.6494141,12.45117,-13.67188,-34.5459,74.21265,-11.1676,-159.2688,54.3,-93.26667,39.225,1
132769,0.2661133,0.7412109,0.3618164,7.8125,40.83252,38.94043,73.21838,-7.157593,-155.5444,14.38333,2.358333,-0.75,1
132989,0.11279299999999999,0.8437500000000001,0.06103516,-16.78467,42.72461,-3.2958979999999998,72.30103,-7.706909,-146.8323,15.0,2.875,1.3,1
133199,-0.4165039,1.416016,0.6440429999999999,70.37354,-13.12256,33.3252,73.25684,-7.388306,-141.7291,25.18333,7.05,-2.675,1
133410,0.12255859999999999,0.7666016,0.13476559999999999,-8.483887,-53.03955,-11.65771,75.46509,-9.887695,-156.9177,14.49167,1.5,-2.975,1
133719,0.1948242,0.7314453,0.47412109999999996,-18.24951,44.12842,-36.8042,75.17395,-6.399536,-164.295,56.20833,-92.60833,38.3,1
134029,0.03662109,0.8447266,0.07470703000000001,-10.25391,42.3584,-3.662109,73.17993,-8.014526,-149.6558,15.39167,3.2,1.241667,1
134319,0.1791992,1.6137700000000001,0.24951169999999998,-4.577637,-64.08691,27.40479,76.69556,-10.33813,-147.2992,52.71667,-96.55833,46.99166,1
134629,0.1835938,0.7939453,0.078125,-34.60693,-44.67773,16.72363,73.56995,-10.51392,-164.2676,52.29167,-94.66666,36.55833,1
134899,0.7954102,1.253906,0.28125,3.967285,17.02881,-65.61279,75.58594,-7.976074,-168.5632,17.075,3.733333,-0.8083332999999999,1
135149,0.09570313,0.8081054999999999,0.06982422,-15.68604,42.78564,3.540039,73.42163,-8.54187,-155.4016,14.89167,2.341667,-0.85,1
135449,0.19433589999999998,1.466797,0.2827148,-1.6479489999999999,-40.46631,28.01514,75.70129,-10.92041,-149.9304,14.26667,4.916667,-3.408333,1
135859,0.1464844,1.038086,0.23779299999999998,14.83154,-29.54102,-14.95361,72.54272,-11.31042,-168.1128,23.84167,9.058333,3.708333,1
136109,0.2197266,1.290039,0.18945309999999999,4.02832,40.89355,24.59717,74.78394,-5.767822,-166.1133,12.91667,4.091667,3.141667,1
136330,0.137207,0.8847655999999999,0.09521484000000001,-13.97705,28.93066,5.92041,71.01563,-7.174072,-150.5127,57.475,-92.51667,45.31667,1
136569,0.24511719999999998,1.26416,0.45166019999999996,19.40918,-40.58838,50.72021,74.21265,-10.06348,-147.4365,18.48333,5.983333,-3.758333,1
136809,0.05175781,0.7578125,0.06445313,-11.96289,-27.9541,6.591797,74.38843,-10.93689,-159.5325,54.41667,-93.125,41.28333,1
137049,0.7504883,1.398438,0.5478516,15.31982,11.35254,-70.86182,74.62463,-10.46448,-165.174,21.71667,6.925,0.975,1
137329,0.28662109999999996,0.6967772999999999,0.2919922,6.225586,43.70117,29.41895,73.76221,-8.22876,-158.9612,15.00833,2.416667,-0.85,1
137549,0.1489258,0.9165038999999999,0.1074219,-20.50781,35.33936,-1.159668,70.66956,-8.536377,-149.1119,16.31667,2.066667,0.9,1
137759,0.19726559999999999,1.300781,0.46533199999999997,-10.43701,-34.97314,-5.310059,73.79517,-11.33789,-147.2168,12.225,5.725,0.36666669999999996,1
138029,0.1118164,0.765625,0.14306639999999998,-5.371094,-32.53174,-1.342773,74.58069,-9.503174,-153.7042,13.48333,2.35,-2.925,1
138249,0.4726563,0.8935546999999999,0.394043,-16.23535,38.33008,-55.48096,74.93225,-6.877441,-159.6808,16.90833,3.733333,0.008333334000000001,1
138549,0.0390625,0.8334961,0.07080078000000001,-4.760742,43.88428,-5.249023,73.55347,-7.706909,-142.63,57.00834,-93.33334,50.95,1
138850,0.12695309999999999,1.238281,0.4018555,-9.643555,-38.63525,42.05322,75.31677,-8.66272,-138.8177,54.68333,-94.7,53.26667,1
139119,0.06347656,0.7304687999999999,0.24072269999999998,-2.563477,-41.50391,-19.22607,74.78394,-8.997803,-148.7823,13.0,0.5833332999999999,-1.783333,1
139369,0.30126949999999997,1.44873,0.4257813,27.03857,-23.86475,-34.79004,74.65759,-10.12939,-158.3679,57.00834,-92.04166,43.03333,1
139689,0.1435547,0.7998046999999999,0.13525389999999998,-9.58252,41.56494,15.56396,74.94324,-7.492676,-147.78810000000001,14.56667,0.9500000000000001,-1.783333,1
139979,-0.2124023,1.39502,0.6127929999999999,58.59375,-4.333496,41.19873,72.22412,-6.531372,-138.999,23.375,7.7,-0.9916666999999999,1
140329,0.11425779999999999,0.7412109,0.18994139999999998,-0.1831055,-43.51807,-9.460449,74.5697,-8.679199,-151.6663,14.625,1.15,-4.775,1
140559,0.5639647999999999,1.139648,0.2714844,2.319336,22.52197,-58.71582,75.35522,-6.624756,-160.5872,58.50834,-90.99167,42.6,1
140809,0.1689453,0.8515625,0.20605469999999998,15.86914,47.48535,21.05713,76.12427,-7.014771,-151.8915,14.25,2.225,-1.9916669999999999,1
141049,0.3535156,0.9335937999999999,0.22119139999999998,-2.624512,-0.42724609999999996,5.004883,71.59241,-5.861206,-142.4048,57.475,-92.85833,50.51667,1
141289,0.1733398,0.9833984,0.2954102,-22.09473,-34.85107,-29.23584,75.20142,-10.85999,-146.9147,13.00833,3.191667,0.8333332999999999,1
141569,0.03466797,0.7822266,0.04003906,-21.48438,-18.24951,11.35254,74.72351,-9.810791,-154.2151,16.74167,5.175,0.6166667,1
141769,0.03466797,0.7822266,0.04003906,-21.48438,-18.24951,11.35254,74.72351,-9.810791,-154.2151,22.825,6.341667,0.8583333999999999,1
141999,0.1523438,0.8325195,0.1464844,-12.69531,36.13281,7.8125,73.91602,-8.025513,-149.3042,15.1,1.575,-2.325,1
142269,-0.1777344,1.311035,0.4243164,35.64453,-8.789063,55.29785,73.61938,-7.926636,-143.5803,55.3,-93.85,50.15833,1
142539,0.10058589999999999,0.7617187999999999,0.2612305,5.7983400000000005,-35.82764,-16.23535,74.87183,-8.76709,-150.0238,14.13333,1.691667,-1.408333,1
142789,0.2558594,1.458008,0.5361328,20.32471,-19.77539,-39.73389,74.34448,-9.30542,-158.5657,56.81667,-91.33334,42.85833,1
143089,0.09228516,0.8149413999999999,0.1230469,-11.59668,35.27832,11.53564,74.86084,-6.201782,-149.1504,57.95833,-91.79166,47.73333,1
143359,0.18603519999999998,1.021484,0.1650391,8.850098,8.422852,-6.469727,71.66382,-5.103149,-144.0088,18.00833,12.0,8.475,1
143599,0.002441406,0.7485352,0.3208008,-16.47949,-49.19434,-24.78027,75.26184,-8.953857,-154.2865,56.39167,-92.00833,43.875,1
143909,0.005859375,1.14209,0.08056641,12.63428,-8.483887,-10.86426,73.47107,-10.42053,-166.0638,21.66667,7.091667,1.066667,1
144220,0.2080078,0.8408203,0.1777344,15.25879,47.79053,17.45605,75.81116,-7.937622,-158.9117,13.675,2.275,-1.983333,1
144519,0.34179689999999996,1.024902,0.1577148,-1.159668,4.821777,1.281738,71.32324,-6.641235,-147.4969,18.425,7.4,0.09166667,1
144889,-0.01367188,0.7695312999999999,0.01611328,-18.12744,-17.76123,11.2915,75.09155,-9.437256,-156.3684,55.25,-92.05,42.56667,1
145159,0.7578125,1.472656,0.5703125,6.9580079999999995,-10.55908,-63.65967,75.70679,-9.014282,-162.345,22.1,5.883333,1.45,1
145399,0.10107419999999999,0.8417969,0.13916019999999998,-8.239746,37.71973,11.77979,74.50928,-8.366089,-151.2708,56.95833,-91.7,45.95,1
145639,0.1674805,1.01709,0.1054688,0.3051758,22.3999,-1.953125,71.07605,-6.102905,-144.5856,23.23333,9.866667,7.366667,1
145879,0.08886719,1.388672,0.3603516,-11.16943,-54.19922,2.075195,75.31677,-10.91492,-146.629,12.15833,5.375,-1.108333,1
146099,0.01757813,0.8344727,0.048828130000000004,-34.11865,-45.59326,12.3291,72.8009,-10.56335,-159.8346,18.46667,0.9916666999999999,1.75,1
146409,0.10888669999999999,1.052246,0.24511719999999998,-11.1084,53.22266,34.60693,74.2511,-6.174316,-162.9108,57.975,-89.93333,40.09167,1
146719,0.1538086,0.8696288999999999,0.1533203,-0.6103516,26.36719,8.178711,71.6803,-8.21228,-148.7,16.44167,1.075,-1.45,1
147010,0.1054688,0.996582,0.3623047,-18.73779,-33.69141,-18.31055,75.87158,-10.29419,-150.6995,55.86666,-93.05833,46.7,1
147319,0.1630859,0.8847655999999999,0.18603519999999998,4.211426,-22.88818,2.380371,73.62488,-10.84351,-161.0651,55.125,-92.06667,39.88334,1
147589,0.24462889999999998,0.8847655999999999,0.5205078,-8.483887,31.06689,-17.39502,75.23987,-5.773315,-162.5262,14.075,6.15,-0.06666667,1
147829,0.06738281,0.8144530999999999,0.01806641,-10.31494,41.87012,-2.685547,73.67432,-7.811279,-149.1888,58.125,-92.30833,46.65833,1
148129,0.08935547,1.506348,0.43603519999999996,5.67627,-38.75732,15.93018,75.70679,-10.16785,-145.6458,13.425,5.375,-1.966667,1
149419,0.1601563,1.263672,0.3203125,-22.58301,-43.27393,-10.62012,75.59692,-11.0083,-148.0573,12.73333,4.208333,-0.06666667,1
149669,0.09667969,0.8569336,0.1293945,-15.50293,-31.55518,8.850098,72.69653,-10.87097,-158.7909,21.81667,4.95,3.508333,1
149939,0.13916019999999998,0.8364258,0.3427734,-6.530762,57.18994,36.8042,74.53674,-7.13562,-156.8848,15.40833,2.233333,0.5583332999999999,1
150309,0.30224609999999996,0.9887695,0.34863279999999996,28.74756,-7.080078,3.90625,70.90576,-6.481934,-142.5476,60.69167,-93.58334,49.075,1
150539,0.1157227,0.8740234,0.3461914,-26.24512,-45.41016,-26.00098,73.42163,-9.970093,-148.2111,12.65,3.066667,-0.225,1
150829,-0.01855469,0.7285155999999999,0.0034179690000000003,-20.81299,-34.85107,4.455566,72.70203,-9.299927,-156.9672,17.05,4.766667,1.733333,1
151030,0.3540039,1.3823239999999999,0.3388672,16.60156,42.90771,21.42334,75.47607,-4.87793,-162.4658,63.875,-91.4,38.175,1
151279,0.109375,0.7929687999999999,0.1386719,-10.92529,34.79004,6.896973,74.94873,-7.272949,-152.0178,14.05833,0.8833333,-2.641667,1
151509,0.17480469999999998,1.1635739999999999,0.04785156,-0.12207029999999999,12.20703,-1.525879,72.2406,-5.29541,-146.4038,25.86667,10.25833,7.833333,1
151729,0.09472656,0.7167969,0.2524414,0.24414059999999999,-41.07666,-14.03809,75.48157,-9.387817,-154.6326,60.0,-93.00833,42.36666,1
151980,0.1303711,0.8881836,0.17431639999999998,-12.87842,-36.9873,-0.12207029999999999,72.94373,-11.40381,-160.6586,22.08333,5.016667,4.708333,1
152249,0.199707,0.8520508,0.6157227,-15.625,43.45703,-16.90674,75.96497,-5.949097,-163.6469,14.83333,5.883333,-0.9833333999999999,1
152459,0.1000977,0.8251953,0.04248047,-9.277344,47.18018,-3.2958979999999998,72.53723,-7.816772,-147.431,14.94167,3.316667,-0.1083333,1
152739,0.04785156,1.509277,0.5078125,-2.990723,-45.8374,15.31982,74.59717,-10.67322,-144.3329,58.03333,-93.525,48.45,1
153009,0.1757813,0.6938477,0.1728516,-0.42724609999999996,-46.20361,-17.94434,74.78394,-8.909912,-155.4071,13.11667,0.125,-3.533333,1
153290,0.7065429999999999,1.196777,0.40283199999999997,11.47461,11.71875,-64.94141,75.72876,-7.943115,-163.7512,18.65,3.675,-0.2083333,1
153549,0.06738281,0.8232421999999999,0.1328125,-17.7002,41.50391,7.324219,74.83337,-7.042236,-151.8036,62.09167,-90.86667,46.01667,1
153829,0.2080078,1.018066,0.044921880000000004,-16.05225,5.004883,0.4882813,71.56494,-5.855713,-146.2445,23.60833,9.583333,7.075,1
154079,0.09619141,0.7714844,0.2729492,0.24414059999999999,-34.85107,-16.54053,76.11328,-8.909912,-152.8528,14.01667,2.175,-1.8666669999999999,1
154379,-0.07714844,1.255859,0.1396484,8.239746,-29.29688,-15.68604,73.74023,-10.30518,-159.9994,13.75833,7.783333,-2.4,1
154759,0.11279299999999999,0.8452147999999999,0.1035156,-16.17432,28.50342,-0.793457,72.73499,-7.185059,-154.1986,62.725,-90.4,43.25834,1
155009,0.29345699999999997,0.9892578,0.425293,27.22168,-5.371094,10.19287,71.04858,-6.306152,-149.8425,21.18333,7.4,0.8583333999999999,1
155259,0.1489258,0.7509766,0.19775389999999998,4.02832,-34.79004,-12.20703,75.02563,-8.898926,-156.7639,61.35833,-91.59167,42.69167,1
155509,0.1293945,0.980957,0.3081055,10.68115,-22.27783,-6.469727,72.57019,-11.31042,-161.7297,23.40833,11.96667,0.6166667,1
155739,0.3540039,1.285156,0.40380859999999996,9.277344,27.03857,4.821777,75.04211,-5.421753,-163.9655,12.83333,5.383333,2.258333,1
155969,0.1298828,0.8608397999999999,0.08496094,-3.051758,28.9917,2.990723,72.28455,-7.086182,-151.8805,17.79167,2.466667,-1.733333,1
156269,0.34082029999999996,1.333984,0.3227539,11.1084,-17.7002,44.6167,76.38245,-9.448242,-149.4745,17.64167,5.708333,-3.041667,1
156489,0.005371094000000001,0.7587891,0.03417969,-17.21191,-17.82227,15.86914,76.43738,-10.03601,-158.5217,59.79167,-93.15833,42.50834,1
156769,0.5864258,1.172363,0.4702148,0.1831055,13.79395,-10.49805,75.83313,-5.251465,-163.6304,63.89167,-89.78333,41.18333,1
157069,0.1386719,0.8969727,0.14257809999999999,-8.666992,36.01074,13.00049,75.8606,-7.130127,-155.0555,14.01667,0.6416666999999999,-2.316667,1
157309,0.07861328000000001,1.23584,0.5527344,54.87061,-3.234863,24.29199,73.27881000000001,-6.459961,-148.4967,61.725,-93.38333,50.10833,1
157579,0.1098633,0.7856445,0.1518555,0.7324219,-39.67285,-5.859375,76.43738,-9.212036,-158.3514,61.125,-92.99167,44.35,1
157879,0.1420898,1.004395,0.2260742,11.1084,-14.4043,-9.643555,73.88855,-11.27197,-163.6523,22.04167,9.858334,3.083333,1
158129,0.2460938,0.8227538999999999,0.2524414,19.59229,35.46143,23.01025,75.91003,-8.063965,-161.0046,14.70833,2.216667,-1.666667,1
158409,0.2319336,1.059082,0.1181641,-10.62012,15.07568,-4.638672,72.19666,-6.937866,-152.6166,23.525,6.316667,5.516667,1
158739,0.1259766,0.796875,0.23291019999999998,5.7983400000000005,-33.69141,-9.94873,76.6626,-9.63501,-157.6483,14.40833,1.7083329999999999,-1.9000000000000001,1
159049,0.3149414,1.4887700000000001,0.45898439999999996,23.25439,-22.52197,-30.51758,74.75098,-11.25549,-165.2838,13.04167,9.633333,-1.9000000000000001,1
159279,0.0625,0.8325195,0.3071289,4.211426,55.60303,31.79932,74.73999,-6.624756,-161.5924,14.84167,3.508333,0.6083333,1
159499,0.09326172,0.9433594,0.1689453,1.525879,28.13721,-5.065918,72.724,-6.635742,-150.5676,62.075,-92.31667,48.45833,1
159739,-0.02441406,1.209961,0.4335938,15.13672,-21.60645,17.02881,76.17371,-9.349365,-148.255,16.9,4.25,-1.508333,1
159979,0.1040039,0.824707,0.1870117,8.789063,-26.67236,-9.033203,77.18445,-9.327393,-154.0723,13.925,0.45,-1.933333,1
160189,0.1992188,1.29834,0.4726563,0.12207029999999999,-46.56982,-30.33447,76.39343,-10.93689,-160.7904,58.70833,-93.73333,44.68333,1
160439,0.2978516,0.7846679999999999,0.3203125,2.563477,37.47559,33.3252,75.66833,-6.998291,-159.7522,15.25,2.591667,-1.05,1
160719,0.1499023,0.9140625,0.15136719999999998,-5.737305,25.08545,-5.92041,72.75146,-6.251221,-149.9304,61.81667,-92.55833,49.76667,1
160999,0.1640625,1.03125,0.2539063,-7.995605,-47.30225,-15.99121,75.77271,-10.9314,-152.688,58.31667,-94.83334,49.20833,1
161299,0.05908203,0.8364258,0.1191406,-3.051758,-17.33398,8.056641,75.7782,-9.799805,-159.549,16.475,3.141667,0.7666666999999999,1
161539,0.4599609,0.9106445,0.5263671999999999,-16.17432,25.57373,-47.66846,76.67358,-6.317139,-165.4761,62.10833,-91.375,43.60833,1
161809,0.1264648,0.8344727,0.12060549999999999,-18.85986,34.24072,-4.821777,74.60266,-7.300415,-155.4126,60.63334,-93.03333,47.85,1
162109,0.3125,1.068848,0.04248047,-16.17432,-0.6103516,-19.28711,71.2793,-4.96582,-152.3529,19.525,6.908333,2.55,1
162349,0.1445313,0.9072266,0.26269529999999996,-0.7324219,-67.62695,-14.5874,76.69556,-8.140869,-164.7565,13.025,2.7,-3.141667,1
162629,0.044921880000000004,1.160156,0.04296875,-2.075195,-27.771,0.1831055,75.22339,-10.99731,-178.9673,18.71667,10.91667,1.3,1
162969,0.2832031,0.8520508,0.2661133,16.41846,46.99707,19.9585,77.48657,-8.250732,-177.0172,16.075,2.983333,-1.7083329999999999,1
163239,0.1791992,0.8798828,0.16601559999999999,-10.37598,30.94482,-9.765625,74.50378,-7.624512,-164.4598,17.6,0.24166669999999998,-0.06666667,1
163609,0.03222656,0.7578125,0.3276367,-17.82227,-68.2373,-26.85547,77.44263,-9.069214,-169.6234,56.96667,-91.08334,43.48333,1
163839,0.01464844,0.9179687999999999,0.1264648,-16.17432,-83.80127,-19.104,76.45386,-8.959351,175.8966,17.875,3.183333,0.225,1
164119,0.33300779999999996,0.9458008,0.31054689999999996,-18.43262,-95.09277,-14.16016,77.61292,-7.745361,156.7584,12.23333,1.383333,-3.633333,1
164329,0.359375,0.9819336,0.1987305,-6.530762,-26.67236,4.089355,76.43738,-5.740356,147.9034,16.01667,4.225,-2.65,1
164539,0.24853519999999998,1.051758,0.2231445,-5.432129,-51.57471,-5.432129,74.08081,-6.9104,140.235,46.36666,-78.86667,15.48333,1
164779,0.3037109,0.9589844,0.125,-33.87451,-109.0698,-36.8042,73.26782,-7.250977,122.3547,15.11667,1.383333,-4.083333,1
166009,0.24414059999999999,0.9814453,0.1889648,-4.760742,14.64844,14.4043,76.21765,-8.327637,39.91333,14.7,1.858333,-0.3833333,1
166229,0.1948242,0.9580078,0.184082,-5.67627,8.361816,-16.96777,75.1355,-8.272705,42.19299,20.41667,-0.2583333,-0.55,1
166439,0.1132813,1.280273,0.2836914,14.77051,-52.00195,-5.493164,78.60718,-9.217529,37.26563,12.33333,5.741667,0.15833329999999998,1
166749,0.06445313,0.8896484,0.08105469,-16.72363,-34.36279,12.93945,78.80493,-6.860962,25.14221,-12.19167,-77.75,38.89167,1
167059,0.24560549999999998,1.112793,0.2124023,-2.319336,31.79932,10.62012,80.45837,-4.158325,21.24756,-11.14167,-80.425,39.43333,1
167319,0.1196289,0.9443359,0.1606445,-4.699707,25.32959,9.094238,80.18921,-8.618774,29.29504,13.79167,1.0,-0.6416666999999999,1
167569,-0.16699219999999998,1.334961,0.6425780999999999,23.25439,-12.81738,35.94971,80.3595,-7.932129,32.49756,-11.63333,-77.64167,34.425,1
167869,0.1362305,0.8676758,0.2358398,-2.929688,-36.37695,-13.5498,81.94153,-8.184814,22.48352,14.21667,1.85,-3.058333,1
168169,-0.09716797,1.357422,0.234375,0.5493163999999999,-33.26416,-9.094238,80.66162,-8.942871,15.55664,-14.125,-79.6,46.69167,1
168479,0.1386719,0.7207030999999999,0.22558589999999998,26.18408,9.399414,28.01514,82.08984,-8.55835,18.63281,16.5,2.741667,0.3333333,1
168809,0.265625,1.079102,0.1728516,-5.493164,39.61182,6.164551,80.36499,-10.35461,26.15295,22.15833,4.866667,2.433333,1
169129,0.23291019999999998,0.6572266,0.3369141,-17.21191,6.9580079999999995,-29.90723,83.6554,-13.5022,24.20837,13.26667,2.058333,1.158333,1
169359,-0.1694336,1.175293,0.07373047,14.89258,-3.967285,-13.85498,83.20496,-11.33789,23.91174,-15.0,-77.0,43.85,1
169599,0.1113281,0.9711913999999999,0.234375,-6.652832,28.13721,36.25488,84.47937,-6.470947,23.1427,13.28333,3.308333,2.133333,1
169839,0.1132813,0.8212891,0.1772461,-7.629395,39.48975,5.432129,84.18823,-10.79407,30.20691,16.6,2.466667,0.05,1
170049,-0.08349609,1.196777,0.3779297,20.08057,-25.14648,38.57422,84.34204,-12.06299,37.29858,-12.575,-76.14167,35.08333,1
170299,0.05859375,0.6508788999999999,0.30908199999999997,0.1831055,-53.95508,-37.41455,85.56152,-10.4425,26.47156,14.34167,2.45,-0.49166669999999996,1
170579,0.1635742,0.8891602,0.1386719,-21.1792,-41.68701,9.887695,84.60571,-9.453735,16.88599,22.38333,1.316667,0.3333333,1
170789,0.10644529999999999,0.9731445,0.2089844,-17.57813,55.23682,30.45654,86.83044,-5.751343,18.54492,14.35,3.25,2.25,1
171059,0.06787109,0.9350586,0.13134769999999998,-14.83154,42.11426,11.90186,84.85291,-11.17859,28.78418,14.89167,2.25,-0.8,1
171269,0.2817383,1.134277,0.09667969,-17.45605,31.31104,0.1831055,80.93628,-11.64551,36.65588,18.23333,4.666667,-0.7416667,1
171499,0.07714844,0.6508788999999999,0.3374023,5.981445,-40.89355,-35.52246,84.40796,-12.12891,27.63611,13.96667,2.783333,1.125,1
171789,0.11669919999999999,1.371094,0.2084961,12.39014,-18.49365,-16.29639,85.15503,-10.14587,17.54517,-14.39167,-79.38333,49.825,1
172099,0.19433589999999998,0.7490234,0.18994139999999998,19.53125,19.53125,26.48926,84.64417,-9.975586,23.65906,16.79167,1.608333,-1.025,1
172399,0.31005859999999996,1.178223,0.12695309999999999,1.342773,7.141113,7.93457,83.26538,-10.16785,29.50928,-13.69167,-77.4,41.13334,1
172709,0.08203125,0.7158203,0.21435549999999998,15.01465,-29.35791,-23.74268,86.69861,-10.97534,21.00037,14.60833,1.783333,-0.275,1
173039,0.19384769999999998,1.4560549999999999,0.3740234,9.58252,-12.45117,-20.32471,85.90759,-10.73364,13.17261,9.816667,7.85,-2.058333,1
173319,0.2124023,0.8310546999999999,0.1362305,16.72363,52.00195,31.43311,85.47913,-12.40356,27.70752,14.925,1.983333,0.1666667,1
173679,0.04443359,0.8564453,0.3603516,-10.74219,-22.82715,27.83203,84.89136,-15.00183,41.69861,-13.075,-74.05,35.11666,1
173959,0.03320313,0.7021484,0.2163086,11.16943,-51.69678,-33.08105,86.11084,-12.10144,31.27808,13.825,0.4,-0.65,1
174199,0.2563477,0.9736328,0.1806641,-1.7700200000000001,-39.36768,-7.446289,85.63843,-11.13464,21.28052,27.73333,9.691667,1.266667,1
174409,0.20947269999999998,0.6337891,0.31738279999999996,5.432129,44.98291,50.65918,85.68787,-8.415527,25.16418,-12.78333,-78.75,45.89167,1
174649,0.05419922,0.8369141,0.01660156,-7.263184,37.90283,-6.286621,84.44092,-12.10693,34.19495,18.78333,3.833333,1.075,1
174899,-0.1381836,1.215332,0.5952147999999999,-1.281738,-63.04932,7.873535,86.20972,-14.79858,33.9093,10.46667,4.575,-3.35,1
175209,0.05419922,0.8037109,0.0390625,-19.59229,-36.9873,11.16943,85.86365,-10.53589,22.23633,-13.51667,-77.65833,50.10833,1
175519,0.06933594,1.07373,0.2006836,-13.5498,42.84668,18.37158,85.84167,-5.559082,20.53345,-10.95,-80.88333,49.35,1
175789,0.11425779999999999,0.9194336,0.11425779999999999,-2.197266,44.12842,11.1084,85.52307,-11.92017,29.4928,15.025,1.525,-0.7666666999999999,1
176029,0.2685547,1.166504,0.2646484,4.638672,-23.13232,29.1748,85.23193,-12.40356,36.43066,-12.10833,-76.85,41.15833,1
176329,0.08789063,0.793457,0.1542969,-4.211426,-49.25537,-16.60156,86.29761,-9.118652,21.11023,13.20833,2.375,-3.733333,1
176629,0.09228516,0.7089844,0.3632813,-10.37598,31.25,-35.21729,86.44043,-5.498657,13.33191,-9.9,-83.35,54.71667,1
176929,0.10644529999999999,0.9667969,0.1137695,-5.187988,35.64453,5.615234,85.56702,-11.63452,25.01587,-12.9,-79.54166,47.19167,1
177209,0.28613279999999996,1.235352,0.1601563,-2.319336,25.63477,1.7700200000000001,83.62793,-11.43677,31.712040000000002,20.56667,4.583333,0.75,1
177449,0.1103516,0.6293945,0.2841797,-3.173828,-17.27295,-31.00586,85.88013,-12.41455,25.40039,14.2,2.133333,0.7583333,1
177759,-0.07617188,1.302246,0.1723633,5.310059,-14.16016,-14.95361,85.20447,-10.54688,19.17114,13.21667,7.533333,-1.575,1
178099,0.1889648,0.7646484,0.15039059999999999,21.54541,27.16064,30.27344,85.12756,-10.00305,26.13647,15.65,2.4,-0.6166667,1
178299,0.1962891,0.9091796999999999,0.09277344,5.493164,15.13672,4.699707,83.27637,-11.28845,31.11328,21.80833,-0.7333333,-3.083333,1
178519,0.30175779999999996,1.40918,0.27001949999999997,0.1831055,-69.03076,-3.4790039999999998,87.23694,-15.77637,30.25635,-14.96667,-77.35833,44.88334,1
178759,0.08935547,0.8374022999999999,0.11474609999999999,-1.037598,-44.73877,-10.00977,87.97302,-10.51392,21.40686,15.16667,0.925,-4.575,1
179029,-0.015625,1.297852,0.04248047,2.563477,-8.483887,-14.46533,86.1438,-10.64026,15.77637,16.66667,9.983334,-0.2833333,1
179239,0.2607422,0.7802734,0.19726559999999999,26.85547,54.50439,30.39551,86.36902,-10.99731,29.15771,-11.45,-80.175,44.91667,1
179489,0.1914063,0.9350586,0.1293945,-7.446289,20.08057,7.751465,83.36975,-12.4585,38.12256,21.225,-0.8333332999999999,-3.166667,1
179749,0.3115234,1.380859,0.26220699999999997,-5.065918,-63.5376,-9.155273,86.59973,-15.57861,36.9635,-12.025,-76.875,40.65,1
180019,0.06298828000000001,0.8408203,0.14697269999999998,-9.033203,-23.37646,-10.13184,86.72607,-10.72815,30.3772,15.26667,2.066667,-3.425,1
180249,0.284668,0.6704102,0.503418,-17.63916,31.98242,-28.80859,86.32507,-6.152344,25.58167,-8.175,-83.075,46.35,1
180559,0.09472656,0.8818359,0.09570313,-10.62012,29.84619,6.225586,83.35876,-11.19507,35.24963,16.66667,2.741667,0.725,1
180859,0.07617188,0.8100586,0.5283203,-2.746582,-36.9873,22.33887,83.25989,-13.74939,39.9408,-10.50833,-76.59167,38.15833,1
181159,0.0859375,0.8535155999999999,0.08886719,-0.06103516,-19.59229,3.845215,85.3418,-9.997559,27.29004,-10.25833,-79.85,45.55,1
181429,0.1538086,1.5488279999999999,0.34179689999999996,11.23047,-35.03418,-26.30615,85.0177,-10.45349,22.63184,11.65,9.075,-2.591667,1
181679,0.10839839999999999,0.8266602,0.1293945,7.751465,38.26904,30.51758,85.04517,-12.06848,33.88184,15.325,0.5,-0.125,1
182969,0.08447266,0.8701171999999999,0.015625,-12.69531,28.32031,2.685547,82.15027,-11.46423,36.66138,19.48333,3.675,1.8,1
183299,0.1376953,1.356934,0.3691406,6.164551,-47.30225,17.45605,84.8584,-15.21057,37.55676,9.325,5.891667,-0.49166669999999996,1
183619,0.015625,0.8701171999999999,0.09521484000000001,-22.33887,-33.99658,11.90186,84.28711,-11.55762,30.11902,21.675,0.9583332999999999,1.5,1
183839,0.4702148,0.7958984,0.35644529999999996,-13.42773,21.42334,-46.32568,86.80847,-7.223511,25.55969,16.975,3.325,-1.283333,1
184059,0.2583008,0.8344727,0.21435549999999998,11.77979,26.97754,14.77051,86.43494,-9.761353,31.79443,14.98333,2.441667,-1.558333,1
184269,0.28662109999999996,1.183594,0.1157227,-7.873535,12.20703,-0.9155272999999999,81.62292,-10.90393,41.80298,-6.975,-78.69167,35.81667,1
184509,0.2192383,1.025391,0.3291016,-28.13721,-41.07666,-25.5127,84.89685,-14.46899,36.34277,12.0,4.191667,1.85,1
184759,0.1767578,1.008789,0.19042969999999998,-0.6713867,-23.25439,12.02393,84.68262,-10.20081,24.104,-9.525,-80.25833,47.45,1
184999,0.2929688,0.7065429999999999,0.49902339999999995,-15.56396,20.56885,-9.155273,86.10535,-5.663452,22.93945,13.56667,5.566667,-0.2583333,1
185279,0.1923828,0.9003905999999999,0.15820309999999999,6.9580079999999995,34.05762,23.98682,86.58325,-10.85449,31.2616,15.06667,1.033333,-1.175,1
185489,0.1923828,0.9003905999999999,0.15820309999999999,6.9580079999999995,34.05762,23.98682,86.58325,-10.85449,31.2616,19.09167,6.141667,2.066667,1
185699,0.17431639999999998,0.8217772999999999,0.284668,-21.24023,-26.79443,-30.57861,85.0946,-14.65027,36.65588,13.49167,2.875,1.125,1
185989,0.2089844,1.066895,0.30957029999999996,1.220703,-27.22168,-7.507324,83.6499,-12.14539,27.91077,-10.3,-78.625,45.4,1
186249,0.515625,1.036133,0.49902339999999995,4.150391,16.05225,-1.159668,85.10559,-7.3718259999999995,27.30103,11.31667,5.541667,1.191667,1
186489,0.09423828000000001,0.9160155999999999,0.024902340000000002,-11.90186,34.42383,-1.098633,83.22693,-12.60132,39.33655,-8.383333,-77.88333,37.1,1
186799,0.10107419999999999,1.375,0.35693359999999996,15.86914,-46.44775,20.32471,85.35828,-15.17212,41.89087,-9.55,-76.69167,37.63334,1
187069,0.10498049999999999,0.8037109,0.1386719,2.502441,-28.86963,-10.55908,86.12183,-10.56335,34.7113,16.29167,1.033333,-3.283333,1
187320,0.25,0.6030272999999999,0.3608398,-16.41846,22.15576,-36.62109,86.68213,-6.564331,28.74023,14.83333,4.275,-1.8666669999999999,1
187619,0.07177734,0.8940429999999999,0.07519531,-6.225586,36.19385,-0.1831055,85.31982,-12.57935,40.4187,17.34167,2.658333,-0.8583333999999999,1
187959,0.08203125,0.9096679999999999,0.49121089999999995,-8.544922,-43.21289,20.93506,85.48462,-15.23254,43.91785,13.75833,5.116667,-4.7,1
188159,0.1435547,0.7827147999999999,0.1621094,9.94873,-44.25049,-26.67236,85.83618,-11.87073,34.58496,14.40833,0.01666667,-2.766667,1
188379,0.7236328,1.260742,0.6162109,9.887695,2.075195,-63.7207,86.44592,-8.827515,26.91101,-9.233334,-81.28333,46.575,1
188629,0.20605469999999998,0.6577147999999999,0.2563477,14.52637,39.00146,37.47559,85.05615,-9.799805,33.61816,15.125,2.016667,-0.15833329999999998,1
188889,0.10839839999999999,0.8740234,0.03271484,-9.643555,16.47949,7.324219,83.24341,-12.32117,41.44592,21.575,3.166667,-2.25,1
189109,0.2773438,1.401855,0.2763672,-4.089355,-33.75244,9.643555,85.3363,-16.04553,39.84741,-10.975,-76.325,38.76667,1
189369,0.06738281,0.8452147999999999,0.14306639999999998,-0.4882813,-32.65381,-10.86426,85.14954,-11.09619,33.74451,15.30833,2.108333,-2.608333,1
189599,0.03369141,1.361816,0.29443359999999996,13.24463,-23.98682,-16.05225,84.62219,-11.21704,28.34473,10.2,7.625,-2.083333,1
189829,0.22119139999999998,0.7792969,0.1831055,15.99121,30.51758,32.04346,84.84192,-11.72241,35.57373,15.59167,1.441667,-1.066667,1
190129,0.2666016,0.9995117,0.300293,7.8125,-2.807617,4.089355,82.39197,-12.52991,43.06641,-9.058333,-78.10833,37.46667,1
190429,0.13916019999999998,0.762207,0.1811523,12.81738,-34.17969,-25.14648,86.59424,-11.59607,34.56299,14.04167,0.7333333,-1.891667,1
190729,0.4555664,1.45752,0.5117188,8.972168,-1.037598,-43.45703,86.11633,-9.464722,28.19641,-8.708333,-82.025,46.325,1
191029,0.1435547,0.8745117,0.1699219,-5.065918,23.19336,18.24951,84.92432,-11.84875,37.5293,-9.291667,-79.38333,40.10833,1
191309,0.2602539,1.087402,0.2070313,6.896973,24.90234,-6.591797,82.86987,-12.38159,42.57751,22.025,10.71667,5.791667,1
191559,0.04638672,0.6152344,0.2978516,-15.19775,-25.14648,-33.75244,85.00122,-14.16138,38.172,13.76667,2.55,1.016667,1
191859,0.1494141,1.259277,0.2001953,11.47461,-12.81738,-11.04736,84.96277,-11.85425,31.20667,19.06667,11.94167,0.875,1
192199,0.2905273,0.6923828,0.246582,23.01025,42.05322,35.46143,85.71533,-10.93689,36.85913,15.1,2.2,-0.2333333,1
192399,0.1376953,0.9023437999999999,0.06933594,-16.47949,25.32959,2.929688,83.30383,-13.21106,45.32959,20.98333,1.233333,-2.233333,1
192619,0.27099609999999996,1.37793,0.2475586,-11.90186,-46.38672,-7.446289,85.65491,-15.77087,43.43445,-9.458333,-78.225,36.56667,1
192859,0.1210938,0.8222655999999999,0.15087889999999998,2.563477,-28.50342,-7.202148,86.35803,-10.53589,35.58472,16.65,2.875,-2.108333,1
193129,-0.125,1.391602,0.23779299999999998,14.03809,-37.41455,-11.1084,86.25366,-10.26123,31.26709,12.55833,10.33333,-2.9333329999999997,1
193339,0.2304688,0.8950195,0.11621089999999999,9.399414,36.13281,23.25439,86.2262,-10.42603,38.13354,-7.783333,-83.34167,40.63334,1
193589,0.2338867,1.029297,0.1801758,2.868652,18.55469,8.666992,82.76001,-12.22778,44.74731,17.99167,6.141667,1.85,1
193849,0.1362305,0.8027344,0.31005859999999996,-32.77588,-29.47998,-36.86523,85.45166,-14.29321,38.82019,-9.675,-81.65,41.325,1
194109,0.03710938,0.8310546999999999,0.01660156,-21.60645,-18.18848,7.8125,85.04517,-10.59082,31.79993,18.24167,4.7,1.525,1
194349,0.48974609999999996,1.138184,0.3901367,9.155273,28.19824,0.9765625,84.62219,-6.569824,27.97119,-6.591667,-85.41666,46.45,1
194659,0.08251953000000001,0.9023437999999999,0.0009765625,-10.00977,39.42871,-1.525879,82.70508,-12.052,42.5885,19.00833,2.816667,1.066667,1
194959,0.05322266,1.330078,0.3842773,11.16943,-59.44824,20.99609,84.25964,-15.1062,45.58777,-9.133333,-80.30833,39.55833,1
195259,0.04296875,0.824707,0.08837891,-28.01514,-34.97314,18.00537,83.69934,-11.19507,34.09058,-9.283334,-82.28333,45.38334,1
195529,0.6015625,0.9746094,0.4643555,-3.2958979999999998,27.40479,-53.6499,85.23743,-7.454224,30.26733,18.24167,2.141667,-0.9916666999999999,1
195779,0.09130859,0.9174804999999999,0.1230469,-8.666992,36.43799,2.01416,83.32031,-11.63452,43.64868,14.85833,2.216667,-0.5,1
196089,0.18652339999999998,1.020508,0.40429689999999996,-9.094238,-29.11377,30.51758,83.61145,-13.43079,48.30139,18.53333,5.475,-4.883333,1
196389,0.05517578,0.7700195,0.03613281,-16.47949,-29.05273,3.540039,84.12231,-10.2063,34.3927,17.25,5.058333,0.8833333,1
196729,0.53125,1.123535,0.4389648,5.859375,21.1792,1.89209,84.67163,-6.630249,31.06934,11.9,5.458333,0.7583333,1
196959,0.1499023,0.8334961,0.03222656,-6.469727,37.47559,1.342773,81.66687,-11.67297,42.18201,-8.408334,-80.43333,41.78333,1
197209,-0.2612305,1.2998049999999999,0.5546875,45.8374,-2.13623,33.63037,82.35901,-11.68945,47.77405,25.35,6.883333,0.36666669999999996,1
197449,0.09130859,0.7006836,0.1450195,1.281738,-18.67676,-7.385254,83.86963,-11.88171,39.43542,-9.541667,-79.7,44.55,1
197689,-0.2192383,1.341309,0.03955078,18.06641,-18.49365,-18.37158,83.32031,-12.34314,35.23865,11.25,6.2,-2.275,1
197969,0.01855469,0.953125,0.2353516,-10.86426,60.97412,46.08154,84.27063,-8.997803,39.40247,13.06667,2.741667,3.141667,1
198179,0.01855469,0.953125,0.2353516,-10.86426,60.97412,46.08154,84.27063,-8.997803,39.40247,16.23333,2.975,-0.06666667,1
199379,0.18164059999999999,0.9042969,0.078125,-9.70459,29.54102,3.417969,81.26038,-14.12842,58.44727,20.56667,1.5833329999999999,-0.8833333,1
199589,0.18164059999999999,0.9042969,0.078125,-9.70459,29.54102,3.417969,81.26038,-14.12842,58.44727,23.525,4.625,-2.958333,1
199799,0.1025391,0.7226562999999999,0.12207029999999999,-4.02832,-26.48926,-4.455566,84.2926,-12.00256,50.0592,17.09167,3.516667,-1.633333,1
200089,0.3139648,0.7426758,0.6005859,-13.48877,31.12793,-15.99121,85.15503,-8.97583,47.0929,-8.383333,-80.7,38.975,1
200349,0.203125,0.8554687999999999,0.10888669999999999,3.234863,41.68701,21.97266,83.92456,-13.27698,56.89819,14.41667,0.5833332999999999,-1.741667,1
200589,-0.002441406,1.250977,0.7519530999999999,47.9126,-2.746582,24.04785,80.09033,-14.27673,66.96167,-5.825,-76.01667,26.64167,1
200899,0.08935547,0.7612304999999999,0.11474609999999999,9.277344,-16.35742,-14.16016,83.35876,-15.32043,62.57263,-7.733333,-76.75,29.80833,1
201169,0.15917969999999998,1.277832,0.20996089999999998,15.93018,-8.728026999999999,-17.27295,82.72156,-15.40283,58.75488,21.01667,9.141666,2.125,1
201420,0.27099609999999996,0.7250977,0.21777339999999998,27.34375,45.22705,25.20752,83.04016,-14.13391,68.56018,14.59167,1.641667,-0.85,1
201719,0.2089844,1.141602,0.5439453,19.04297,-16.11328,12.81738,78.33801,-13.93616,80.81543,19.95833,8.358334,-0.7583333,1
202059,0.1098633,0.7431641,0.1635742,16.8457,-31.18896,-19.47021,81.39771,-15.15015,73.39966,14.50833,0.40833329999999995,-2.55,1
202259,0.1435547,1.121094,0.3032227,7.507324,-22.94922,-7.93457,79.99695,-15.69397,68.28552,21.60833,10.56667,1.3,1
202479,0.2802734,0.6669921999999999,0.30957029999999996,24.96338,53.6499,40.46631,81.62842,-13.61755,76.11328,-0.7583333,-79.375,23.8,1
202799,0.1044922,0.8920897999999999,0.06152344,-12.146,37.78076,-0.6713867,78.33801,-14.76563,87.46765,20.225,1.075,0.05833333,1
202999,0.1044922,0.8920897999999999,0.06152344,-12.146,37.78076,-0.6713867,78.33801,-14.76563,87.46765,22.20833,4.383333,-4.933333,1
203209,0.08740234,0.7460937999999999,0.13476559999999999,3.540039,-32.22656,-5.126953,82.02942,-15.47424,80.56824,-0.7666666999999999,-78.98333,23.5,1
203459,0.4150391,1.6538089999999999,0.43603519999999996,22.52197,-17.51709,-50.29297,82.86987,-15.5127,75.50903,12.91667,10.275,-1.575,1
203699,0.04052734,0.6948242,0.3344727,-8.239746,78.49121,41.80908,81.46912,-12.1344,84.84741,14.53333,2.233333,1.9000000000000001,1
203909,0.1567383,0.9594727,0.17871089999999998,8.666992,34.91211,-1.525879,77.146,-14.1449,101.1511,20.33333,11.66667,5.933333,1
204219,0.1079102,0.7363280999999999,0.2714844,-26.61133,-33.38623,-33.3252,78.9917,-16.25977,98.84949,6.566667,-78.83334,18.44167,1
204529,0.1137695,1.178711,0.1923828,15.07568,-24.23096,-13.73291,78.11279,-14.97986,89.29688,19.50833,10.3,0.9916666999999999,1
204819,0.2636719,0.7084961,0.2436523,28.50342,54.62646,32.65381,79.94751,-13.05176,96.74561,7.6,-79.90833,19.30833,1
205119,0.35742189999999996,1.208008,-0.01464844,-19.104,18.49365,-3.78418,76.64063,-12.79358,109.1382,13.175,-79.10833,15.8,1
205399,0.3452148,1.212402,0.32519529999999996,-27.28271,-25.87891,-19.28711,80.85388,-17.91321,105.8533,11.80833,3.533333,1.275,1
205649,0.2104492,0.9721679999999999,0.1489258,-10.92529,-29.35791,1.7700200000000001,78.94226,-16.01257,98.10791,25.44167,6.216667,1.108333,1
205959,0.10107419999999999,0.7695312999999999,0.3525391,-6.286621,68.78662,44.67773,79.61792,-11.42578,102.464,14.925,1.8333329999999999,-0.05,1
206249,0.1464844,1.01416,0.1416016,6.896973,27.03857,0.42724609999999996,75.04211,-13.20557,118.4381,17.10833,5.383333,0.9416667,1
206599,0.0625,0.8007812999999999,0.34179689999999996,-25.20752,-46.75293,-37.53662,77.45911,-14.1394,112.4121,12.0,2.525,-0.1833333,1
206830,0.15917969999999998,1.181152,0.28662109999999996,12.02393,-35.09521,-10.98633,76.76697,-13.6615,99.87671,6.4,-78.13333,19.06667,1
207079,0.4223633,1.399902,0.08251953000000001,-8.056641,56.64063,24.35303,79.45862,-9.552612,101.7004,11.14167,3.45,2.691667,1
207319,0.15136719999999998,0.9150391,0.1040039,0.8544921999999999,30.45654,2.868652,75.41016,-12.81555,118.1854,16.64167,-78.94167,14.01667,1
207559,0.1323242,1.054688,0.48925779999999996,-7.080078,-11.35254,48.58398,78.25562,-14.66125,122.0087,17.79167,5.766667,-4.633333,1
207839,0.13916019999999998,0.6899413999999999,0.21875000000000003,13.67188,-23.31543,-18.67676,77.76123,-14.71069,116.6364,13.975,1.508333,-1.116667,1
208060,0.4443359,1.503418,0.7338867,10.19287,2.990723,-47.30225,77.42065,-13.92517,110.05,13.06667,-80.05833,16.7,1
208339,0.2280273,0.8452147999999999,0.1103516,7.873535,55.41992,21.91162,76.16272,-13.3374,123.6896,19.63333,-79.725,13.69167,1
208639,0.2578125,1.066895,0.1796875,1.525879,28.25928,-3.417969,73.36121,-11.54114,133.3356,17.225,12.75833,10.25,1
208879,-0.03125,0.5913086,0.2714844,-10.13184,-39.0625,-28.25928,75.73425,-12.87598,127.9083,12.75833,2.358333,-0.24166669999999998,1
209149,0.03564453,1.342773,0.03076172,12.81738,-23.68164,-8.789063,75.91003,-12.82654,115.8838,14.9,-79.59167,15.325,1
209449,0.05566406,1.019531,0.171875,-10.86426,66.16211,37.78076,76.71753,-8.904419,118.7732,13.18333,2.691667,3.591667,1
209689,0.15478519999999998,0.9687500000000001,0.17822269999999998,-5.249023,29.90723,3.601074,73.53699,-11.34888,134.9121,20.025,9.025,2.9333329999999997,1
209969,0.17871089999999998,0.7553711,0.2573242,-25.20752,-30.94482,-40.22217,74.23462,-14.32617,132.8632,13.24167,2.633333,2.441667,1
210309,0.1650391,1.138672,0.3149414,5.981445,-20.08057,-9.70459,74.00391,-12.27173,125.2661,24.90833,11.35833,1.325,1
210579,0.2192383,0.6367187999999999,0.3515625,17.76123,42.66357,39.00146,75.56396,-9.338379,130.5615,15.06667,2.383333,-0.1666667,1
210949,-0.0859375,1.269043,0.6289062999999999,56.27441,0.4882813,27.16064,74.4873,-10.07446,142.5201,30.99167,-82.525,13.49167,1
211179,0.05322266,0.6206054999999999,0.3061523,-6.530762,-39.18457,-33.69141,76.5802,-11.54663,135.5548,14.08333,2.75,0.15,1
211459,0.015136720000000001,0.8286133,0.03076172,-30.63965,-21.48438,13.48877,76.47583,-11.1676,129.5508,21.45,1.916667,0.5750000000000001,1
211669,0.2348633,1.229492,0.1420898,-11.90186,32.59277,17.51709,77.28882,-6.811523,126.8152,25.71667,-82.45834,13.14167,1
211909,0.1137695,0.9482421999999999,0.08544922,0.42724609999999996,32.59277,12.20703,75.05859,-10.57983,135.4065,15.0,0.9,-1.116667,1
212159,0.32470699999999997,1.166016,0.05078125,-15.44189,15.56396,-3.112793,73.46008,-8.289185,140.213,20.55833,6.966667,1.7083329999999999,1
212359,0.1000977,0.6650391,0.2739258,8.605957,-31.61621,-27.89307,76.66809,-11.36536,133.2806,25.475,-83.13333,13.76667,1
212619,0.1645508,0.984375,0.1645508,-12.75635,-25.93994,8.239746,75.1355,-11.72241,128.7653,23.45833,1.108333,0.5833332999999999,1
212889,0.041015630000000004,1.024414,0.22167969999999998,-3.90625,52.12402,43.94531,76.79443,-7.311401,129.8199,27.03333,-83.15833,13.725,1
213169,0.3364258,0.9448242,0.137207,-1.403809,33.26416,10.55908,73.66333,-9.84375,141.449,31.26667,-82.65833,13.45,1
213469,0.15917969999999998,0.9291992,0.42626949999999997,-20.93506,-28.74756,26.00098,75.6958,-11.91467,144.1022,17.81667,4.9,-4.125,1
213709,0.07373047,0.8442383,0.08984375,3.173828,-22.3999,2.075195,76.68457,-10.47546,132.5665,24.63333,-82.375,13.79167,1
213979,0.2988281,0.7880859,0.5839844,-22.82715,29.47998,-17.21191,76.84937,-5.723877,127.5568,26.51667,-83.1,14.09167,1
214279,0.2124023,0.8959961,0.1445313,-1.220703,31.79932,16.54053,77.28882,-8.915405,135.9338,14.98333,0.9,-1.441667,1
214529,0.33300779999999996,1.124023,0.03466797,-9.70459,9.033203,1.403809,72.71851,-7.88269,144.2999,16.11667,7.991667,-2.2,1
214809,0.1416016,0.7578125,0.22509769999999998,7.507324,-51.69678,-24.6582,75.96497,-10.16785,134.3518,13.69167,2.291667,-2.033333,1
216119,0.06591797,0.7954102,0.07958984,-11.41357,-16.11328,5.615234,75.39368,-9.28894,131.8634,16.375,3.883333,-0.5750000000000001,1
216459,0.328125,0.7241211,0.5917969,-12.3291,17.08984,-9.765625,75.38818,-6.031494,125.799,13.11667,5.883333,0.525,1
216689,0.15625,0.8691405999999999,0.1694336,1.525879,28.50342,21.11816,76.31104,-8.997803,133.6487,14.96667,1.775,-0.9416667,1
216879,0.2666016,0.9702147999999999,0.1889648,1.8310549999999999,29.78516,3.173828,73.86108,-8.426514,139.6417,18.875,3.533333,0.6333333,1
217099,-0.008789063,0.9174804999999999,0.47412109999999996,-16.72363,-20.87402,28.25928,76.09131000000001,-10.59631,142.1466,18.03333,5.041667,-3.233333,1
217299,0.09716797,0.8134766,0.11669919999999999,-8.239746,-21.11816,1.037598,76.12427,-9.558105,131.2262,26.35833,-83.375,11.66667,1
217549,0.0004882813,1.387207,0.2558594,14.89258,-24.78027,-22.88818,75.24536,-10.37109,126.535,10.20833,7.875,-2.133333,1
217789,0.07080078000000001,0.9145508,0.2763672,-2.075195,58.22754,34.91211,76.08582,-6.624756,129.3695,14.33333,3.366667,2.075,1
218009,0.24511719999999998,0.9750977,0.13134769999999998,2.807617,22.70508,4.02832,74.94324,-8.481445,139.2572,19.66667,2.116667,-2.175,1
218320,0.2509766,1.165527,0.2758789,-16.11328,-24.6582,-6.9580079999999995,77.20642,-12.93091,138.7299,28.60833,-84.26667,12.80833,1
218619,0.09130859,0.953125,0.1123047,-9.82666,-31.18896,7.751465,74.90479,-11.07422,132.7643,21.875,3.308333,2.216667,1
218919,0.08935547,0.8881836,0.2744141,2.13623,47.97363,35.15625,76.61865,-5.971069,130.9515,29.43333,-83.51667,12.31667,1
219229,0.2260742,0.9624022999999999,0.1230469,-4.638672,18.37158,1.464844,74.99817,-8.289185,139.9164,33.01667,-83.26667,12.18333,1
219489,-0.06591797,1.192871,0.39550779999999996,21.48438,-11.16943,21.30127,75.07507,-9.118652,142.8003,22.08333,5.7,-0.1166667,1
219739,0.11474609999999999,0.8666992,0.19726559999999999,-4.272461,-30.39551,-14.28223,75.43213,-8.926392,131.1218,26.58333,-81.65833,10.65,1
220039,0.6337891,1.217773,0.5771484,3.78418,-0.06103516,-51.81885,75.54199,-7.833252,123.4973,19.78333,4.166667,1.0,1
220349,0.18945309999999999,0.9858397999999999,0.1411133,5.615234,28.38135,10.92529,75.98694,-9.700928,133.1488,14.73333,0.8666667,-0.7666666999999999,1
220649,-0.2045898,1.273438,0.6054687999999999,47.72949,1.342773,28.19824,75.55298,-8.596802,140.1636,22.275,5.833333,1.908333,1
221019,0.04248047,0.8691405999999999,0.09472656,-30.45654,-34.97314,14.46533,76.14624,-9.684448,126.8701,23.55833,-82.01667,10.3,1
221289,0.5986328,1.126465,0.5717772999999999,1.403809,6.347656,-54.6875,77.20642,-7.800293,121.2341,19.53333,2.75,-0.65,1
221529,0.1235352,0.9301758,0.1455078,-3.356934,34.5459,10.55908,76.07483,-9.294434,132.616,28.75833,-82.85833,10.0,1
221769,0.28564449999999997,1.170898,0.1303711,-10.92529,20.99609,-7.873535,74.42688,-7.366333,137.3511,22.10833,10.46667,5.266667,1
222009,0.1020508,1.22168,0.4018555,10.19287,-57.06787,14.83154,76.4978,-11.26099,135.2197,10.5,4.991667,-1.966667,1
222219,0.04443359,0.8320312999999999,0.060546880000000004,-30.57861,-31.25,13.85498,74.95422,-9.448242,123.4644,22.38333,-81.75,9.541667,1
222479,0.6381836,1.150879,0.6689453,2.441406,-7.69043,-53.83301,76.48682,-8.184814,117.5317,20.74167,5.008333,1.383333,1
222759,0.15869139999999998,0.8969727,0.15136719999999998,-0.8544921999999999,36.13281,13.18359,76.36597,-10.47546,130.2759,27.19167,-83.20834,10.575,1
223029,-0.1806641,1.27002,0.5263671999999999,40.52734,-1.037598,40.16113,75.7782,-9.316406,138.0652,30.58333,-83.8,11.25,1
223329,0.05078125,0.6499022999999999,0.2988281,-4.150391,-38.45215,-31.06689,76.27808,-10.82153,131.803,13.44167,2.85,-0.5416667,1
223579,-0.044921880000000004,1.292969,0.2006836,9.216309,-23.55957,-12.51221,75.13,-10.99182,123.4644,21.35,-81.64167,11.43333,1
223849,0.2734375,0.8076171999999999,0.190918,24.96338,41.25977,25.02441,76.20117,-9.310913,131.1108,26.96667,-82.15,11.58333,1
224149,0.20556639999999998,0.9291992,0.1396484,-3.173828,26.79443,1.220703,73.46558,-8.66272,138.8782,18.93333,1.558333,-2.266667,1
224399,0.2324219,1.077637,0.3369141,-27.03857,-33.08105,-16.54053,75.97595,-11.87073,136.2415,12.325,4.725,0.6583333,1
224679,0.171875,0.9204102,0.2026367,-8.728026999999999,-25.32959,11.1084,73.56445,-10.17334,125.0079,22.58333,2.391667,0.9,1
225009,0.1030273,0.9169921999999999,0.2583008,-5.065918,52.49023,38.08594,75.16846,-6.295166,124.9255,14.725,2.758333,3.0,1
225319,0.20166019999999998,0.9755859,0.1254883,5.249023,26.85547,0.6103516,74.30054,-8.338623,135.7471,17.69167,2.716667,-1.016667,1
225549,0.23779299999999998,1.006836,0.42773439999999996,-3.90625,-22.76611,39.0625,76.83838,-10.85449,137.785,17.025,5.608333,-3.083333,1
225769,0.09667969,0.8437500000000001,0.1323242,-10.0708,-18.00537,-3.234863,76.57471,-9.717407,129.787,25.15833,-82.475,8.658334,1
226009,0.1279297,1.436035,0.3076172,15.86914,-30.63965,-20.38574,75.55298,-10.77759,126.3977,12.35,9.225,-0.9833333999999999,1
226249,0.1967773,0.8071288999999999,0.35595699999999997,4.272461,53.10059,37.8418,75.50903,-7.646484,130.3528,14.31667,2.958333,0.15,1
226469,0.1962891,0.9682617,0.1762695,7.141113,33.26416,-0.9155272999999999,73.15247,-9.327393,143.2837,18.73333,7.591667,2.925,1
226769,0.06445313,1.088379,0.4399414,-3.78418,-34.42383,23.07129,75.60242,-11.42578,144.1846,14.075,5.666667,-2.925,1
226999,0.05566406,0.7832030999999999,0.03271484,-19.04297,-22.09473,5.493164,76.11328,-9.365845,130.4572,25.7,-84.25833,9.566667,1
227269,0.4243164,1.080566,0.3916016,2.380371,26.18408,-5.615234,76.32202,-5.707397,126.0022,27.43333,-84.75,10.54167,1
227559,0.1523438,0.8647461,0.14257809999999999,-5.432129,37.59766,14.89258,76.84937,-9.074707,134.4122,14.6,0.425,-1.566667,1
227809,0.09082031,1.249023,0.5996094,41.50391,9.58252,30.51758,74.0094,-8.283691,142.7948,33.45833,-85.20834,12.05,1
228079,0.175293,0.8032227,0.1694336,-4.516602,-41.50391,-20.62988,75.6189,-9.40979,131.781,27.325,-83.23333,11.15,1
228379,0.1333008,1.208008,0.24462889999999998,16.90674,-22.58301,-4.638672,73.94897,-11.01379,127.0184,22.95,11.50833,0.9833333999999999,1
228619,0.1811523,0.7119141,0.284668,26.7334,41.25977,34.97314,76.04187,-8.55835,133.0609,29.3,-83.49167,12.49167,1
228899,0.23730469999999998,1.140137,0.0703125,-13.79395,29.11377,-2.075195,73.22388,-8.355103,143.8605,21.59167,9.383333,2.883333,1
229239,0.06103516,0.6928711,0.2910156,5.310059,-43.396,-33.02002,75.13,-10.50842,137.5983,13.89167,3.091667,0.48333329999999997,1
229509,0.109375,1.219727,0.09667969,4.821777,-21.54541,-6.835938,74.91577,-9.788818,127.1173,15.3,5.733333,0.075,1
229879,0.08203125,0.9145508,0.109375,-9.338379,42.90771,3.356934,77.20642,-9.085693,136.7084,29.73333,-82.24167,13.88333,1
230119,0.27099609999999996,1.199219,0.056640630000000004,-17.94434,26.06201,0.793457,74.05334,-8.129883,143.9758,20.03333,5.475,1.683333,1
230389,0.1953125,1.269531,0.2617188,-8.972168,-38.20801,5.67627,76.16821,-12.16736,142.3004,11.64167,4.95,0.6166667,1
230599,0.10498049999999999,0.8334961,0.1772461,-0.793457,-20.81299,-7.446289,76.39343,-8.679199,135.5164,15.31667,1.275,-3.675,1
230809,0.42675779999999996,0.8271484,0.425293,-11.96289,21.78955,-41.74805,76.00891,-6.05896,129.5068,27.88333,-79.93333,12.35833,1
231049,0.1694336,0.8388671999999999,0.1713867,27.9541,32.04346,24.41406,76.56372,-8.058472,138.1146,16.05,2.166667,-0.6583333,1
231299,0.359375,1.054199,0.09667969,-17.82227,14.09912,2.01416,73.8501,-6.635742,146.6785,18.33333,8.333333,0.3083333,1
231639,0.1040039,0.7104492,0.2275391,9.277344,-42.29736,-21.72852,76.08032,-9.036255,137.6477,13.991670000000001,1.95,-0.4666667,1
232899,0.15039059999999999,0.8076171999999999,0.1279297,-10.55908,-32.65381,-3.78418,75.68481,-8.195801,135.2637,29.79167,-80.86667,10.35,1
233189,-0.048828130000000004,1.398438,0.2124023,15.625,-34.5459,-10.68115,74.82239,-9.937134,130.556,11.85,8.075,-2.108333,1
233439,0.11669919999999999,0.8266602,0.1523438,23.07129,37.8418,33.3252,75.98145,-8.909912,139.3066,32.73333,-82.91666,11.325,1
233719,0.331543,1.172852,0.008300781,-20.26367,4.02832,-3.356934,74.16321,-7.509155,146.0248,36.85,-82.90833,11.13333,1
234009,0.2929688,1.317383,0.2226563,-11.84082,-34.36279,-5.310059,76.9043,-11.77734,141.7566,10.9,4.316667,1.025,1
234259,0.06396484,0.9819336,0.1450195,-14.03809,-21.42334,12.75635,74.08081,-11.09619,136.2195,28.05,-82.15,9.6,1
234529,0.14257809999999999,0.7939453,0.3374023,-2.13623,59.44824,32.71484,75.17944,-7.267456,137.8455,32.81667,-82.85,9.975,1
234839,0.07275391,0.9008788999999999,0.0859375,-6.408691,44.86084,3.845215,74.98169,-9.887695,148.4033,15.85,3.0,-0.05,1
235079,0.03466797,1.134277,0.4482422,-5.859375,-24.29199,40.2832,75.3772,-10.78308,155.6049,14.13333,5.4,-3.483333,1
235389,-0.007324219000000001,0.7641602,0.046875,-17.51709,-20.50781,9.70459,75.10803,-9.558105,144.9426,18.575,4.95,2.0,1
235629,0.5361328,1.374023,0.6577147999999999,-0.9765625,-2.624512,-44.06738,75.64087,-9.168091,140.6195,19.96667,6.375,1.608333,1
235839,0.159668,0.8642578,0.15478519999999998,-4.150391,40.64941,13.91602,75.68481,-9.151611,152.3639,40.13334,-85.46667,13.04167,1
236119,0.27050779999999996,1.061523,0.11669919999999999,0.12207029999999999,30.51758,-6.652832,73.22388,-7.185059,160.3949,23.64167,4.316667,1.3,1
236319,0.109375,0.5844727,0.3125,-5.187988,-35.40039,-28.86963,74.85535,-9.673462,153.7097,39.4,-85.50833,12.79167,1
236589,0.09423828000000001,0.9101562999999999,0.1201172,-20.20264,-25.87891,19.9585,74.0918,-10.48096,149.2603,20.525,1.916667,0.1833333,1
236839,0.6035155999999999,0.8452147999999999,0.3354492,-7.507324,33.02002,-46.02051,75.70129,-8.063965,145.2393,18.43333,2.35,0.49166669999999996,1
237059,0.25488279999999996,0.8056641,0.1806641,15.31982,40.77148,20.08057,76.46484,-9.255981,154.6436,15.21667,2.25,-0.3833333,1
237269,0.2558594,1.107422,0.09326172,-3.601074,28.9917,1.098633,72.75696,-7.926636,167.2998,19.01667,6.233333,1.275,1
237539,0.1835938,1.02832,0.3691406,-29.60205,-34.17969,-20.38574,76.79993,-12.39258,163.5864,12.625,4.025,1.45,1
237759,0.190918,0.9291992,0.1616211,-6.225586,-21.91162,6.164551,74.63013,-11.37085,155.0555,24.325,8.083333,2.525,1
238059,0.21728519999999998,0.7402344,0.3530273,1.159668,46.63086,41.44287,75.89905,-8.135376,158.7305,43.09167,-87.55833,15.85,1
238369,0.2426758,0.9077147999999999,0.20996089999999998,9.399414,38.08594,-1.159668,72.44385,-8.497925,171.4856,19.69167,7.758333,4.141667,1
238699,0.12402339999999999,0.7988280999999999,0.26318359999999996,-23.92578,-28.62549,-31.67725,75.98145,-11.22253,167.558,13.79167,2.508333,1.383333,1
238969,0.1728516,1.075195,0.2836914,11.77979,-19.16504,-5.126953,74.98718,-11.35437,158.6646,39.83333,-88.2,15.75833,1
239249,0.1000977,1.161133,0.3134766,6.713867,48.52295,17.7002,77.16248,-5.877686,160.9662,13.60833,5.191667,2.316667,1
239489,0.1757813,0.9091796999999999,0.09667969,-16.05225,31.73828,2.807617,73.47656,-8.882446,173.6224,17.33333,2.125,1.9916669999999999,1
239829,0.1181641,1.3925779999999999,0.3193359,2.01416,-61.15723,12.02393,76.59119,-11.94763,176.9073,11.16667,4.8,-2.016667,1
240079,0.03466797,0.8100586,0.03466797,-28.07617,-26.48926,17.45605,76.33301,-10.02502,163.7897,42.6,-88.78333,17.19167,1
240309,0.9926758,1.3408200000000001,0.6484375,26.67236,12.02393,-59.99756,77.74475,-8.415527,159.0601,19.61667,3.166667,-0.3416667,1
240559,0.08203125,0.8452147999999999,0.1337891,-8.300781,40.71045,12.69531,75.56396,-9.503174,172.4414,47.60833,-89.56667,20.61667,1
240809,0.2104492,1.157227,0.05810547,2.807617,25.32959,0.9765625,73.10303,-7.849731,179.6924,20.03333,9.283334,7.066667,1
241079,0.3217773,1.402344,0.2817383,-5.859375,-59.69238,-6.103516,77.49207,-12.6123,176.0504,10.53333,5.0,0.4166667,1
241299,0.20556639999999998,0.9462891,0.08300781,-23.55957,-35.64453,10.98633,75.76172,-11.10718,165.4596,42.725,-89.46667,18.50833,1
241579,0.08398438,0.8969727,0.31787109999999996,-6.164551,37.17041,43.27393,77.05811,-6.075439,168.7885,48.58333,-89.375,21.25,1
241869,0.128418,0.8085937999999999,0.05517578,-13.61084,35.03418,0.9155272999999999,75.25635,-7.432251,175.5176,15.69167,3.4,0.6833332999999999,1
242119,0.08837891,1.081543,0.3691406,-8.483887,-39.55078,29.54102,77.19543,-10.82703,-179.8132,14.10833,5.15,-3.258333,1
242389,0.03759766,0.7832030999999999,0.03076172,-19.04297,-19.40918,13.24463,77.09656,-9.552612,166.6077,44.73333,-89.80833,19.49167,1
242659,0.5234375,1.483887,0.527832,20.99609,15.625,-66.58936,77.48657,-9.157104,163.3777,20.575,7.041667,1.216667,1
242929,0.1196289,0.902832,0.1308594,-3.845215,38.69629,12.81738,76.59119,-9.497681,175.6769,15.11667,0.7583333,-2.366667,1
243209,-0.048828130000000004,1.128906,0.6069336,41.87012,21.85059,20.08057,74.38293,-8.025513,-172.793,24.525,5.533333,0.225,1
243550,0.07226563,0.8271484,0.08935547,-7.324219,-40.64941,-15.93018,77.05811,-9.607544,177.8796,13.89167,0.8333332999999999,-4.466667,1
243819,0.3701172,0.9482421999999999,0.18164059999999999,2.563477,31.12793,-60.97412,77.09656,-6.273193,170.4584,18.01667,2.766667,-0.975,1
244189,0.2851563,0.8828125,0.1367188,-12.87842,18.37158,19.104,73.61389,-7.619019,-177.3743,53.29167,-90.56667,25.14167,1
244449,-0.004394531,1.12207,0.3994141,13.3667,-27.89307,45.71533,77.02515,-9.849243,-174.5947,18.54167,6.141667,-4.6,1
244699,0.08984375,0.7998046999999999,0.2304688,6.469727,-47.48535,-23.13232,77.00317,-9.7229,175.9955,12.89167,1.5,-1.3333329999999999,1
244909,0.3271484,1.480957,0.4414063,27.58789,-14.64844,-32.65381,76.14624,-10.19531,165.7727,46.1,-89.825,19.50833,1
245149,0.1396484,0.7973633,0.33349609999999996,1.098633,40.58838,33.63037,76.43738,-6.333618,169.5245,15.125,2.6,-0.35833329999999997,1
245389,0.29345699999999997,0.9379883,0.18261719999999998,2.01416,35.15625,-3.2958979999999998,73.58643000000001,-6.948853,179.3408,53.23333,-89.41666,23.275,1
245639,0.02685547,1.090332,0.42626949999999997,-7.751465,-45.22705,20.75195,77.12952,-10.448,179.6429,14.76667,5.008333,-3.783333,1
245919,0.1152344,0.7885742,0.05175781,-21.42334,-31.25,4.699707,75.95398,-9.365845,165.9045,45.13334,-88.55833,17.25,1
246219,0.36572269999999996,0.8251953,0.4785156,-6.103516,13.12256,4.638672,75.20691,-6.575317,161.7517,13.20833,5.458333,1.383333,1
246519,0.08007813,0.8964844,0.07080078000000001,-7.385254,28.13721,-8.239746,75.19043,-9.190063,172.0184,49.36666,-89.41666,20.68333,1
246829,0.06591797,1.01123,0.37255859999999996,3.234863,-29.47998,12.87842,76.49231,-11.43127,176.4514,17.125,3.633333,-2.016667,1
247159,0.05322266,0.8457030999999999,0.09179688,-5.371094,-16.05225,6.347656,77.2998,-10.58533,168.7445,16.44167,1.8333329999999999,-0.3416667,1
247429,0.3051758,0.8359375,0.5009766,-27.16064,33.93555,-26.55029,77.04163,-6.135864,165.4706,48.33333,-89.40833,19.525,1
247709,0.2001953,0.8789062999999999,0.1606445,-5.859375,41.3208,18.9209,77.2229,-9.360352,173.941,14.73333,0.7583333,-0.1333333,1
247939,0.2719727,1.198242,0.1655273,17.57813,19.9585,9.460449,75.02014,-6.981812,-175.578,53.8,-92.68333,28.20833,1
248259,0.1337891,0.8159179999999999,0.2080078,3.78418,-47.18018,-19.59229,78.21716,-10.00854,175.4462,13.975,1.4583329999999999,-0.1,1
248589,-0.04980469,1.20752,0.1176758,2.624512,-13.24463,-15.44189,77.948,-12.04651,167.4097,15.31667,3.9333329999999997,-0.48333329999999997,1
249879,0.4521484,1.030273,0.37158199999999997,42.90771,97.96143000000001,-7.141113,79.72778,-15.08972,-118.5754,16.98333,2.841667,5.041667,1
250130,0.22216799999999998,0.8984375,0.026367190000000002,38.20801,182.5562,42.17529,78.5083,-18.48999,-86.61621,16.60833,0.7333333,5.758333,1
250329,0.1020508,1.101563,-0.03662109,36.92627,170.166,34.11865,74.52576,-18.34717,-46.33484,16.825,0.5,0.8916666,1
250539,0.12207029999999999,1.060059,0.5527344,21.91162,38.39111,21.48438,71.70227,-13.94165,-18.77014,-4.75,-91.21667,63.05,1
250779,0.0078125,0.8037109,0.3452148,14.46533,28.93066,-8.666992,74.92676,-14.97986,-12.2113,15.7,3.75,1.691667,1
251019,0.1464844,1.04834,0.21435549999999998,5.065918,-26.67236,3.417969,75.66833,-11.76086,-12.67822,-5.183333,-90.80833,63.36666,1
251269,0.3554688,0.652832,0.4160156,-2.746582,34.11865,-8.300781,77.51404,-8.404541,-14.32617,17.175,3.65,-1.083333,1
251549,0.1601563,0.7973633,0.2270508,3.601074,19.34814,26.00098,76.88782,-10.32715,-6.751099,16.225,2.658333,-1.9000000000000001,1
251759,0.1601563,0.7973633,0.2270508,3.601074,19.34814,26.00098,76.88782,-10.32715,-6.751099,18.64167,-0.7833333,-1.075,1
251969,0.40283199999999997,1.45166,0.2568359,-11.1084,-49.68262,-21.11816,80.99121,-13.60107,-1.543579,12.40833,4.825,1.466667,1
252249,0.11083979999999999,0.875,0.09716797,-29.29688,-36.31592,4.272461,78.72253,-10.23376,-11.83777,-4.183333,-91.38333,65.63333,1
252529,0.49755859999999996,1.010254,0.4716797,6.896973,11.04736,-54.6875,81.52954,-5.844727,-15.08423,16.65,4.066667,-3.158333,1
252789,0.060546880000000004,0.9838867,0.1020508,-8.361816,29.05273,12.3291,79.05212,-8.530884,-5.657959,15.225,1.9000000000000001,-2.025,1
253059,-0.2998047,1.237793,0.5922852,62.74414,-31.18896,33.99658,78.5083,-9.420776,1.796265,-7.333333,-89.19167,59.74166,1
253339,0.01904297,0.6938477,0.2597656,-11.1084,-52.12402,-28.19824,79.57397,-10.33813,-9.810791,13.66667,2.333333,-0.8833333,1
253589,0.06738281,1.199707,0.09375000000000001,3.4790039999999998,-7.995605,-3.601074,77.92603,-10.59631,-20.79712,19.61667,11.29167,1.891667,1
253899,0.31689449999999997,0.7529296999999999,0.22119139999999998,16.41846,49.86572,19.89746,78.86536,-8.261719,-14.61731,15.40833,2.241667,-1.183333,1
254259,-0.48193359999999996,1.214844,0.5498046999999999,62.37793,-10.49805,44.00635,78.0249,-10.14038,0.5767822,-8.183333,-88.375,59.96667,1
254529,0.1030273,0.6655272999999999,0.2675781,-0.1831055,-44.06738,-21.11816,78.51929,-10.96436,-8.822021,12.991670000000001,2.791667,-1.4,1
254769,-0.1777344,1.314453,-0.03173828,0.12207029999999999,-16.72363,-9.521484,77.26135,-10.59631,-16.82007,-2.725,-91.43333,67.61667,1
255009,0.015625,0.9970703,0.2075195,-7.080078,42.05322,37.96387,77.0636,-6.069946,-13.60107,13.15,3.1,1.858333,1
255259,0.07763672,1.0,0.08935547,-7.995605,36.62109,8.666992,75.66833,-9.338379,-4.910889,15.39167,2.991667,0.5583332999999999,1
255469,-0.1303711,1.156738,0.4077148,19.104,-30.76172,58.04443,78.62366,-11.53015,0.1153564,-8.641666,-87.55833,60.31667,1
255749,0.08691406,0.8491211,0.12255859999999999,7.93457,-42.60254,-21.24023,78.95325,-10.54138,-8.920898,12.075,-0.2166667,-3.583333,1
255989,0.2475586,1.040039,0.2080078,7.629395,-19.104,-10.55908,76.09131000000001,-11.73889,-15.9082,23.23333,7.95,2.566667,1
256209,0.2915039,0.6972655999999999,0.26269529999999996,24.23096,37.17041,23.68164,77.34924,-7.998047,-11.16211,15.3,2.525,-0.49166669999999996,1
256489,0.1518555,1.091797,0.16699219999999998,2.13623,41.50391,-6.469727,73.70728,-8.289185,1.098633,-6.258333,-90.275,55.725,1
256759,0.03271484,1.386719,0.42724609999999996,-13.24463,-64.27002,19.22607,77.23389,-12.0575,1.620483,10.11667,4.991667,-1.7083329999999999,1
257029,0.09716797,0.8598633,0.04052734,-33.20313,-47.24121,12.63428,75.59143,-10.06897,-14.84253,20.85,1.391667,1.125,1
257299,0.12255859999999999,1.101563,0.1416016,-7.873535,41.68701,22.76611,77.50854,-6.229248,-16.49597,-0.4166667,-93.06667,65.59167,1
257579,0.1254883,0.8989258,0.1171875,-4.699707,44.43359,4.821777,76.19019,-9.063721,-7.009277,15.725,2.125,-0.5,1
