Timestamp,AccX,AccY,AccZ,GyroX,GyroY,GyroZ,AngX,AngY,AngZ,MagX,MagY,MagZ,Tag
0,-0.01074219,0.9277344,-0.3764648,-8.361816,-5.432129,2.319336,109.4238,1.593018,115.9332,20.28333,-30.1,12.4,1
450,0.006835938000000001,0.9086913999999999,-0.3198242,-4.821777,1.89209,1.403809,108.5889,0.2526855,116.8506,15.88333,-5.541667,0.55,1
700,0.005859375,0.9399413999999999,-0.34960939999999996,-0.6103516,-1.586914,-1.220703,109.0503,0.20324709999999999,116.7957,18.96667,-30.56667,12.93333,1
990,0.0004882813,0.934082,-0.35595699999999997,0.6713867,0.1831055,-0.42724609999999996,109.1711,0.3790283,116.6638,15.93333,-6.016667,0.06666667,1
1190,-0.001953125,0.9311522999999999,-0.3515625,0.7324219,-0.793457,-0.3662109,109.2316,0.5053711,116.521,15.90833,-6.1,0.075,1
1400,-0.002929688,0.9345703,-0.35742189999999996,0.06103516,-0.3662109,-0.12207029999999999,109.2645,0.5822754,116.3892,15.93333,-6.066667,0.05833333,1
1700,-0.00390625,0.9311522999999999,-0.35644529999999996,0.6713867,-0.5493163999999999,0.06103516,109.281,0.6097412,116.2738,19.44167,-30.10833,13.08333,1
2010,-0.004394531,0.9321288999999999,-0.359375,0.5493163999999999,0.0,-0.06103516,109.325,0.6756592,116.12,19.44167,-30.03333,13.0,1
2320,-0.004882813000000001,0.9331054999999999,-0.35595699999999997,0.12207029999999999,-0.3662109,0.12207029999999999,109.3799,0.6811522999999999,116.0596,15.94167,-6.141667,-0.05,1
2570,-0.006347656,0.9335937999999999,-0.35644529999999996,-0.1831055,-0.1831055,0.0,109.4897,0.6646729,116.0046,15.93333,-6.091667,-0.09166667,1
2830,-0.005859375,0.9389647999999999,-0.3515625,-0.7324219,-0.793457,-0.12207029999999999,109.2096,0.7141113,115.8783,19.49167,-30.29167,12.65,1
3130,-0.004882813000000001,0.9438477,-0.35791019999999996,-0.4882813,-0.3051758,-0.1831055,108.9679,0.7580566,115.7904,16.025,-5.916667,-0.075,1
3380,-0.01757813,0.934082,-0.31787109999999996,-1.342773,-3.356934,-4.333496,108.7042,1.312866,115.5267,16.21667,-6.566667,0.5166666999999999,1
3620,-0.03613281,0.9306641,-0.3198242,-2.746582,-0.5493163999999999,-1.342773,108.5944,2.197266,115.1971,20.91667,-29.99167,11.725,1
4930,-0.015136720000000001,0.934082,-0.3515625,0.5493163999999999,-0.12207029999999999,0.0,109.0063,1.373291,115.3784,15.925,-5.875,0.05,1
5190,-0.01757813,0.9355469,-0.3520508,0.6103516,-0.24414059999999999,0.0,109.1382,1.373291,115.307,15.96667,-6.025,0.05,1
5500,-0.01855469,0.9355469,-0.3535156,-0.1831055,-0.12207029999999999,0.0,109.1272,1.378784,115.2301,16.0,-6.133333,0.05833333,1
5830,-0.01806641,0.9370117,-0.3447266,-0.5493163999999999,1.098633,0.9765625,108.8196,1.290894,115.1477,19.95833,-30.30833,12.76667,1
6080,-0.03125,0.9453125,-0.362793,3.78418,-2.197266,1.342773,109.1272,1.219482,114.9005,16.10833,-6.466667,-0.44166669999999997,1
6340,0.005371094000000001,0.9282227,-0.3696289,-6.286621,-1.342773,1.953125,108.7756,1.104126,114.137,15.825,-5.491667,0.275,1
6550,-0.001953125,0.9360352,-0.3369141,0.9155272999999999,0.12207029999999999,0.06103516,108.9844,0.7141113,114.7302,19.575,-30.45833,12.59167,1
6780,-0.0078125,0.934082,-0.3549805,0.0,-0.6103516,-0.1831055,109.1602,0.802002,114.5435,15.95833,-6.016667,-0.008333334000000001,1
7030,-0.005859375,0.9345703,-0.3535156,0.4882813,-0.7324219,0.12207029999999999,109.1821,0.7855225,114.3787,19.60833,-30.40833,12.76667,1
7280,-0.009277344,0.9331054999999999,-0.34960939999999996,0.12207029999999999,-0.6103516,-0.12207029999999999,109.2041,0.8404541,114.2413,15.975,-6.016667,0.0,1
7550,-0.01171875,0.934082,-0.3525391,0.5493163999999999,-0.42724609999999996,0.3051758,109.2206,0.8953857,114.093,15.93333,-6.041667,-0.03333333,1
7770,-0.008300781,0.9311522999999999,-0.34814449999999997,0.0,-0.6713867,0.3051758,109.2041,0.8459473,113.9667,19.96667,-30.21667,12.65,1
8030,-0.011230470000000001,0.9335937999999999,-0.34863279999999996,-0.4882813,-0.3051758,-0.24414059999999999,109.2151,0.8898925999999999,113.7854,16.00833,-6.175,-0.15,1
8260,-0.0034179690000000003,0.9370117,-0.3447266,0.12207029999999999,-0.12207029999999999,-0.12207029999999999,109.0503,0.6591796999999999,113.9941,19.56667,-30.54167,12.725,1
8520,-0.011230470000000001,0.9365234,-0.347168,-0.5493163999999999,-0.06103516,0.06103516,108.88,0.7305908,113.9447,16.01667,-5.941667,0.1166667,1
8760,-0.0034179690000000003,0.9365234,-0.3466797,-0.9155272999999999,0.0,0.0,108.7537,0.6701659999999999,113.8623,19.64167,-30.61667,12.44167,1
9060,-0.005371094000000001,0.9404296999999999,-0.3505859,0.6713867,-0.5493163999999999,0.1831055,108.7811,0.6866455,113.7469,19.7,-30.51667,12.45,1
9360,-0.006347656,0.934082,-0.3393555,1.403809,-0.7324219,0.06103516,108.8086,0.6811522999999999,113.6481,19.75833,-30.575,12.38333,1
9650,-0.004882813000000001,0.9389647999999999,-0.3540039,0.3051758,0.4882813,0.8544921999999999,109.0228,0.6921387,113.4998,16.00833,-6.225,0.325,1
9900,-0.006347656,0.9365234,-0.34814449999999997,0.6103516,0.8544921999999999,1.342773,108.8635,0.5877686,113.3624,16.08333,-6.316667,-0.1,1
10240,0.001953125,0.9316405999999999,-0.3222656,-1.953125,-0.42724609999999996,1.6479489999999999,108.5944,0.02197266,113.6426,15.96667,-5.833333,0.1666667,1
10450,0.01269531,0.9389647999999999,-0.362793,0.6713867,0.4882813,0.0,108.6768,-0.2142334,113.8184,15.85,-5.425,-0.04166667,1
10660,0.005859375,0.9389647999999999,-0.34130859999999996,-0.24414059999999999,-0.12207029999999999,-0.42724609999999996,108.6877,-0.06591797,113.5437,19.15833,-30.94167,12.44167,1
10910,0.007324219000000001,0.9379883,-0.3422852,0.24414059999999999,-0.24414059999999999,-0.24414059999999999,108.6548,-0.1098633,113.5327,15.991670000000001,-5.841667,0.05,1
11170,0.005859375,0.9389647999999999,-0.3452148,0.5493163999999999,-0.12207029999999999,-0.24414059999999999,108.7152,-0.054931640000000004,113.4229,16.05833,-5.816667,0.04166667,1
11390,0.006347656,0.9404296999999999,-0.347168,-0.6103516,-0.12207029999999999,-0.12207029999999999,108.7482,-0.005493164,113.28,19.0,-30.8,12.55833,1
11630,0.005859375,0.9355469,-0.3457031,-0.3051758,0.24414059999999999,0.0,108.6603,-0.02197266,113.2416,16.00833,-5.75,-0.03333333,1
11880,0.008789063,0.9345703,-0.3427734,-0.6103516,0.0,0.1831055,108.7482,-0.054931640000000004,113.2361,19.06667,-30.925,12.4,1
12150,0.005371094000000001,0.9365234,-0.3432617,-0.12207029999999999,0.12207029999999999,0.0,108.7866,-0.06591797,113.2086,16.01667,-5.841667,0.05833333,1
12410,0.004882813000000001,0.9370117,-0.3447266,0.12207029999999999,-0.3662109,-0.12207029999999999,109.0283,-0.01647949,113.1647,19.25833,-30.83333,12.50833,1
12700,0.004394531,0.9350586,-0.34912109999999996,0.5493163999999999,0.06103516,0.0,109.2261,-0.01098633,113.1097,15.98333,-5.925,0.01666667,1
13010,0.004394531,0.9365234,-0.3476563,-0.12207029999999999,0.12207029999999999,0.0,109.4128,-0.01098633,113.0438,19.25833,-30.69167,12.25833,1
13320,0.0034179690000000003,0.9331054999999999,-0.3432617,1.159668,-0.42724609999999996,0.0,109.5117,0.0,113.0273,16.125,-6.341667,0.2166667,1
13650,0.0004882813,0.9296875,-0.3237305,0.4882813,-0.06103516,0.1831055,109.4403,0.02197266,112.934,15.975,-6.125,0.1333333,1
13930,0.008789063,0.9360352,-0.3544922,-0.3662109,0.24414059999999999,0.06103516,109.5282,0.0,112.8406,15.925,-5.883333,0.0,1
14260,0.002929688,0.9355469,-0.3554688,0.1831055,0.24414059999999999,-0.24414059999999999,109.4348,0.04943848,112.7966,16.44167,-6.55,-0.1666667,1
14580,0.0,0.9291992,-0.3447266,4.943848,1.525879,2.258301,109.6106,-0.1483154,113.3075,16.0,-6.791667,0.35833329999999997,1
14800,0.02197266,0.9599609,-0.3935547,-1.098633,1.098633,0.1831055,109.715,-0.3900146,113.3405,15.625,-5.116667,0.1916667,1
15010,0.01269531,0.9326171999999999,-0.390625,-1.8310549999999999,0.4882813,-1.098633,109.6436,-0.49438479999999996,113.3405,18.73333,-30.49167,13.225,1
15260,0.01367188,0.921875,-0.3818359,0.6103516,0.8544921999999999,1.098633,109.5941,-0.4998779,113.3185,16.05833,-5.75,0.01666667,1
15490,0.0004882813,0.9331054999999999,-0.3525391,-2.380371,1.89209,-0.5493163999999999,109.3304,-0.2801514,112.9285,19.04167,-30.61667,13.15,1
15730,0.01367188,0.9365234,-0.3696289,0.0,-0.1831055,-0.3051758,109.27,-0.20324709999999999,112.7252,15.96667,-5.658333,0.0,1
16020,0.006347656,0.9345703,-0.33300779999999996,0.12207029999999999,-0.3662109,0.0,109.1107,-0.0604248,112.5055,19.275,-30.63333,12.6,1
16320,0.004394531,0.9379883,-0.328125,-0.7324219,0.3051758,0.06103516,108.7592,-0.1647949,112.3956,16.00833,-5.783333,0.025,1
16640,0.005371094000000001,0.9394530999999999,-0.34375000000000006,0.12207029999999999,-0.24414059999999999,-0.12207029999999999,108.7482,-0.1593018,112.3242,19.08333,-30.93333,12.425,1
16920,0.005859375,0.9394530999999999,-0.34179689999999996,0.0,0.12207029999999999,0.24414059999999999,108.8251,-0.1153564,112.1924,16.01667,-5.825,0.008333334000000001,1
17230,0.00390625,0.9404296999999999,-0.3383789,0.7324219,-0.7324219,-0.4882813,108.8855,-0.08239746,112.0935,19.11667,-30.58333,12.75833,1
17530,0.009765625,0.9404296999999999,-0.3500977,-0.6713867,1.8310549999999999,0.6713867,108.8141,-0.2087402,112.1979,19.00833,-30.74167,12.575,1
17800,-0.0034179690000000003,0.9301758,-0.3188477,4.089355,-1.525879,0.793457,109.281,-0.2087402,112.1649,16.13333,-6.233333,0.1416667,1
18060,-0.0034179690000000003,0.9262695,-0.2993164,-5.126953,-0.12207029999999999,-2.807617,108.7097,-0.04943848,111.8573,15.6,-4.616667,0.3083333,1
18370,0.011230470000000001,0.9453125,-0.4155273,-3.234863,2.807617,0.9155272999999999,109.314,-0.2197266,111.7419,16.175,-5.45,-0.8916666,1
18660,0.009765625,0.9453125,-0.3852539,0.3662109,-1.6479489999999999,0.9765625,108.9734,-0.1647949,111.5991,16.1,-6.333333,-0.3833333,1
19010,-0.01757813,0.9296875,-0.31787109999999996,1.159668,-0.3051758,0.0,108.5065,0.09887695,111.6156,16.125,-5.658333,0.2,1
19240,0.006347656,0.9360352,-0.34179689999999996,-0.5493163999999999,-0.06103516,0.793457,108.7976,-0.04943848,111.5936,19.14167,-30.78333,12.7,1
19480,0.008300781,0.9409179999999999,-0.3393555,-0.42724609999999996,-0.06103516,0.3662109,108.7097,-0.0769043,111.4233,16.025,-5.641667,-0.1416667,1
19730,0.0,0.9477538999999999,-0.3310547,-1.342773,1.220703,0.4882813,108.49,-0.1538086,111.5002,19.1,-30.90833,12.43333,1
19960,0.006347656,0.9389647999999999,-0.331543,0.0,0.1831055,0.4882813,108.2813,-0.2911377,111.5167,16.10833,-5.6,-0.025,1
20230,0.01025391,0.9404296999999999,-0.3276367,0.3662109,-0.06103516,0.0,108.2867,-0.3131104,111.4069,16.025,-5.708333,0.08333334,1
20460,0.005859375,0.9428711,-0.328125,-0.06103516,0.42724609999999996,0.0,108.3746,-0.2581787,111.2805,19.025,-31.13333,12.48333,1
21730,-0.001953125,0.9375,-0.3393555,0.9155272999999999,0.3051758,0.06103516,108.7262,0.3295898,110.9784,16.03333,-5.816667,0.03333333,1
21950,0.0009765625,0.9428711,-0.34179689999999996,0.1831055,1.159668,1.159668,108.7152,0.14282229999999999,110.9674,19.25,-30.90833,12.675,1
22190,-0.004394531,0.9370117,-0.3369141,-0.6103516,0.7324219,1.403809,108.5834,-0.0769043,111.0004,16.075,-5.958333,-0.2083333,1
22480,0.0009765625,0.9428711,-0.3427734,-0.3662109,0.3662109,0.12207029999999999,108.49,-0.2362061,110.918,19.025,-30.98333,12.45,1
22740,-0.0009765625,0.9409179999999999,-0.34960939999999996,0.06103516,0.7324219,1.403809,108.2263,-0.2526855,110.6433,19.01667,-31.11667,12.1,1
23050,0.01318359,0.9414062999999999,-0.3291016,-0.9765625,-0.24414059999999999,0.3051758,108.067,-0.38452149999999996,110.6323,16.05,-5.75,0.0,1
23290,0.01171875,0.9418945,-0.328125,0.0,0.06103516,-0.06103516,108.1604,-0.3790283,110.5939,18.99167,-31.26667,12.36667,1
23570,0.006835938000000001,0.9448242,-0.3320313,0.9155272999999999,0.9155272999999999,-0.42724609999999996,108.3032,-0.3076172,110.5005,19.125,-31.025,12.13333,1
23870,0.01416016,0.9375,-0.3359375,-0.3662109,0.9765625,-0.793457,108.2318,-0.28564449999999997,110.5115,15.85,-5.05,0.3833333,1
24120,0.007324219000000001,0.9482421999999999,-0.3618164,-0.1831055,0.0,0.793457,108.9954,-0.1208496,110.2643,15.98333,-6.441667,-0.1666667,1
24430,0.0078125,0.9399413999999999,-0.3500977,1.89209,-1.7700200000000001,1.342773,109.0338,-0.1208496,110.1819,15.925,-6.808333,-0.1416667,1
24660,0.002929688,0.9204102,-0.2753906,-1.89209,-0.9155272999999999,-1.586914,108.891,-0.02197266,110.0995,16.1,-6.225,-0.025,1
24880,0.005859375,0.9414062999999999,-0.3188477,-1.586914,1.037598,1.342773,108.8306,-0.1153564,110.0775,19.14167,-30.575,12.45,1
25120,0.004394531,0.9355469,-0.3271484,-0.12207029999999999,-0.1831055,0.0,108.7811,-0.1757813,110.0391,16.05,-6.066667,0.0,1
25350,0.009765625,0.9384766,-0.3432617,-0.24414059999999999,0.0,-0.12207029999999999,108.7317,-0.2142334,109.9841,18.98333,-30.95,12.60833,1
25590,0.009277344,0.9404296999999999,-0.34130859999999996,-0.24414059999999999,0.0,0.0,108.6987,-0.20324709999999999,109.9072,16.0,-5.766667,-0.075,1
25870,0.007324219000000001,0.9370117,-0.3344727,0.0,-0.1831055,0.0,108.6273,-0.2197266,109.8798,16.075,-5.75,0.0,1
26100,0.009277344,0.9433594,-0.3320313,0.12207029999999999,-0.3662109,0.0,108.7152,-0.1812744,109.7864,19.21667,-30.95833,12.4,1
26360,0.005371094000000001,0.9394530999999999,-0.3359375,0.24414059999999999,0.3662109,-0.24414059999999999,108.8416,-0.1593018,109.7424,16.0,-5.825,0.06666667,1
26570,0.005371094000000001,0.9399413999999999,-0.3393555,0.3662109,-0.12207029999999999,-0.12207029999999999,108.9844,-0.14282229999999999,109.726,16.01667,-5.883333,0.075,1
26800,0.004394531,0.9399413999999999,-0.3422852,0.4882813,-0.12207029999999999,0.06103516,109.1656,-0.1318359,109.7205,16.03333,-5.866667,0.01666667,1
27130,0.005859375,0.9409179999999999,-0.34082029999999996,0.3662109,-0.1831055,-0.06103516,109.292,-0.1647949,109.7314,15.98333,-5.908333,0.025,1
27390,0.004394531,0.9360352,-0.3476563,-0.24414059999999999,-0.06103516,0.0,109.4128,-0.1647949,109.6985,19.25833,-30.8,12.59167,1
27660,0.004882813000000001,0.9379883,-0.34912109999999996,-0.24414059999999999,-0.12207029999999999,0.0,109.4348,-0.1757813,109.704,15.975,-5.891667,-0.075,1
27920,0.006835938000000001,0.9370117,-0.34375000000000006,-0.1831055,-0.1831055,0.06103516,109.3634,-0.2416992,109.704,19.225,-30.66667,12.31667,1
28240,0.002441406,0.9409179999999999,-0.3398438,-0.12207029999999999,-0.12207029999999999,-0.06103516,109.3854,-0.2197266,109.671,16.14167,-5.741667,-0.04166667,1
28570,0.001464844,0.9301758,-0.2900391,2.441406,0.5493163999999999,0.6103516,109.4293,-0.19775389999999998,109.9017,15.991670000000001,-6.3,0.3916667,1
28880,0.004394531,0.9487304999999999,-0.4013672,-2.502441,4.02832,2.441406,109.3964,-0.28564449999999997,109.6985,15.9,-5.508333,-0.1166667,1
29110,0.02587891,0.9580078,-0.4306641,0.6103516,-0.3662109,1.037598,109.4897,-0.4779053,109.671,18.9,-30.86667,12.575,1
29350,0.0009765625,0.9355469,-0.3144531,-0.5493163999999999,0.3662109,1.953125,109.1327,-0.1812744,109.6875,16.15,-6.783333,0.008333334000000001,1
29590,0.01074219,0.9360352,-0.3549805,1.220703,-0.06103516,1.586914,109.3414,-0.2307129,109.5227,19.0,-30.8,12.59167,1
29850,0.00390625,0.9272461,-0.29492189999999996,0.0,-0.793457,-0.12207029999999999,109.248,-0.1263428,109.4073,16.16667,-6.633333,-0.03333333,1
30120,0.009765625,0.9423828,-0.36523439999999996,-0.7324219,0.6713867,1.342773,109.1602,-0.1757813,109.2206,19.19167,-30.81667,12.36667,1
30420,0.005859375,0.9384766,-0.3349609,-0.6103516,0.0,0.12207029999999999,108.9459,-0.2581787,109.1986,16.00833,-5.833333,-0.04166667,1
30730,0.008789063,0.9423828,-0.33398439999999996,-0.24414059999999999,-0.24414059999999999,0.1831055,108.847,-0.27465819999999996,109.0997,19.05833,-31.075,12.35833,1
31020,0.005859375,0.9414062999999999,-0.3305664,-1.8310549999999999,0.6103516,1.037598,108.5944,-0.3515625,109.0228,16.03333,-5.583333,-0.09166667,1
31360,0.01074219,0.9438477,-0.33251949999999997,0.793457,-0.4882813,-0.42724609999999996,108.5065,-0.4284668,108.9899,16.08333,-5.733333,0.075,1
31630,0.01220703,0.9389647999999999,-0.34375000000000006,0.3662109,-0.6103516,-0.42724609999999996,108.6328,-0.3295898,108.8361,19.175,-31.11667,12.20833,1
31900,0.008300781,0.9370117,-0.3447266,-0.24414059999999999,-0.1831055,0.8544921999999999,108.7427,-0.19226069999999998,108.6823,16.09167,-5.908333,0.06666667,1
32160,0.006347656,0.9414062999999999,-0.3393555,-0.42724609999999996,0.24414059999999999,0.12207029999999999,108.7097,-0.2087402,108.6218,15.991670000000001,-5.716667,-0.05,1
32460,0.007324219000000001,0.9365234,-0.3383789,0.793457,-0.3662109,-0.12207029999999999,108.8031,-0.1593018,108.5394,16.05,-5.85,0.09166667,1
32800,0.004394531,0.9384766,-0.3305664,0.1831055,0.3662109,-0.12207029999999999,108.891,-0.1263428,108.468,15.98333,-5.9,0.04166667,1
33070,0.005371094000000001,0.9370117,-0.3432617,0.06103516,-0.06103516,-0.12207029999999999,108.9459,-0.1043701,108.3582,16.0,-5.841667,0.05,1
33430,0.0034179690000000003,0.9375,-0.34130859999999996,0.12207029999999999,0.0,0.0,109.0778,-0.04943848,108.2318,19.39167,-31.00833,12.38333,1
33700,0.0034179690000000003,0.9379883,-0.347168,0.0,-0.12207029999999999,0.0,109.1656,-0.04943848,108.2098,15.98333,-5.808333,0.01666667,1
33950,0.002929688,0.9379883,-0.3427734,0.3051758,-0.06103516,-0.12207029999999999,109.259,-0.01647949,108.1879,16.00833,-5.933333,0.03333333,1
34160,0.0,0.9379883,-0.3422852,-0.3662109,0.5493163999999999,0.06103516,109.27,-0.027465820000000002,108.1879,19.46667,-30.86667,12.3,1
34420,0.005371094000000001,0.9467772999999999,-0.3613281,-1.342773,2.258301,1.098633,109.1547,-0.1538086,108.2263,16.05833,-5.633333,0.1166667,1
34640,-0.0009765625,0.9355469,-0.3505859,2.929688,-2.197266,-0.3051758,109.3964,0.07141113,108.0011,19.56667,-30.54167,12.49167,1
34880,-0.002441406,0.949707,-0.34863279999999996,-5.004883,0.5493163999999999,-2.319336,109.0503,0.01647949,108.078,15.79167,-4.683333,0.1166667,1
35170,0.005859375,0.9458008,-0.3476563,0.3051758,0.9155272999999999,-1.7700200000000001,109.0338,-0.01098633,107.9846,19.55,-30.96667,12.36667,1
35430,0.001464844,0.9536133,-0.3583984,-2.929688,-0.7324219,-2.13623,109.3085,-0.03295898,107.9517,19.4,-30.775,12.33333,1
35740,0.004882813000000001,0.9487304999999999,-0.3759766,-0.9155272999999999,0.3051758,0.24414059999999999,109.2316,-0.054931640000000004,107.8802,15.991670000000001,-5.658333,-0.2083333,1
35980,0.0004882813,0.9409179999999999,-0.3422852,-0.42724609999999996,-0.12207029999999999,-0.3662109,109.0942,0.0,107.8033,19.35,-30.9,12.21667,1
36250,0.004882813000000001,0.9428711,-0.3383789,0.06103516,0.0,0.12207029999999999,109.0173,0.02197266,107.7484,19.33333,-30.725,12.225,1
36550,0.002929688,0.9384766,-0.3422852,-0.6103516,0.5493163999999999,0.06103516,108.9569,0.005493164,107.7264,16.04167,-5.8,-0.025,1
36811,0.002929688,0.9389647999999999,-0.34033199999999997,0.0,-0.12207029999999999,0.0,108.847,-0.005493164,107.6715,16.06667,-5.8,-0.04166667,1
37090,0.004882813000000001,0.9418945,-0.3432617,-0.1831055,0.0,0.3662109,108.8965,-0.04394531,107.6605,16.01667,-6.0,-0.2,1
37420,0.00390625,0.9311522999999999,-0.3149414,4.638672,-1.220703,0.793457,109.1821,0.04943848,107.5616,16.25,-6.458333,0.1333333,1
38710,0.00390625,0.9418945,-0.3427734,-1.708984,-0.3051758,-0.793457,109.0668,0.027465820000000002,107.3035,16.03333,-5.758333,0.09166667,1
38970,0.004394531,0.9409179999999999,-0.3369141,-0.6713867,0.42724609999999996,0.1831055,108.9789,0.01098633,107.254,19.38333,-30.95,12.35833,1
39220,0.004394531,0.9399413999999999,-0.3383789,0.06103516,-0.12207029999999999,-0.06103516,108.8965,-0.01098633,107.2211,16.03333,-5.725,0.008333334000000001,1
39460,0.001953125,0.9404296999999999,-0.3369141,0.4882813,-0.12207029999999999,0.0,108.924,0.0,107.1442,19.35833,-30.81667,12.33333,1
39690,0.002929688,0.9375,-0.3354492,-0.9155272999999999,0.7324219,-0.3662109,108.7921,-0.04943848,107.1881,15.90833,-5.283333,0.35833329999999997,1
39970,-0.001953125,0.9360352,-0.3266602,4.211426,-1.342773,0.0,109.259,0.13732909999999998,107.0178,16.45833,-6.741667,-0.1166667,1
40180,0.005371094000000001,0.9545897999999999,-0.3535156,-4.089355,-1.7700200000000001,-2.441406,109.1986,0.08789063,106.9629,15.81667,-4.775,-0.08333334,1
40410,-0.005859375,0.9291992,-0.2832031,-3.78418,-1.159668,-1.037598,108.9075,0.19775389999999998,106.9135,15.70833,-6.083333,0.1333333,1
40680,0.006347656,0.9472655999999999,-0.3603516,0.6103516,0.793457,0.6103516,109.1931,0.0,106.864,19.36667,-30.69167,12.41667,1
40950,0.00390625,0.9399413999999999,-0.3525391,0.24414059999999999,-0.4882813,0.0,109.1876,0.04943848,106.7816,16.00833,-5.691667,0.01666667,1
41230,-0.0004882813,0.9384766,-0.3461914,-0.42724609999999996,0.0,-0.24414059999999999,109.2041,0.1208496,106.6608,16.00833,-5.75,0.025,1
41490,0.0,0.9375,-0.3452148,0.06103516,0.12207029999999999,0.0,109.1931,0.13732909999999998,106.5839,19.54167,-30.71667,12.2,1
41770,0.0009765625,0.9389647999999999,-0.3442383,-0.12207029999999999,-0.1831055,0.0,109.1382,0.1483154,106.5399,16.025,-5.858333,-0.05,1
42010,0.002441406,0.9409179999999999,-0.3393555,0.3051758,-0.4882813,0.3662109,109.0778,0.1318359,106.5344,19.575,-30.74167,12.24167,1
42310,-0.0004882813,0.9404296999999999,-0.3383789,-0.12207029999999999,-0.12207029999999999,0.06103516,109.1107,0.04943848,106.5399,16.03333,-5.791667,-0.03333333,1
42650,0.002929688,0.9389647999999999,-0.3364258,-0.1831055,-0.12207029999999999,-0.06103516,109.1437,0.03295898,106.5234,16.04167,-5.766667,-0.1,1
42930,-0.001464844,0.9355469,-0.32568359999999996,1.403809,-0.793457,-0.6713867,109.314,0.1153564,106.5234,16.125,-5.925,0.49166669999999996,1
43290,-0.004394531,0.9130859,-0.2583008,0.9155272999999999,0.0,0.12207029999999999,108.8965,0.08239746,106.5125,19.50833,-30.75833,12.14167,1
43570,0.011230470000000001,0.9467772999999999,-0.4008789,-2.075195,1.525879,0.24414059999999999,109.4788,-0.1153564,106.3971,15.70833,-4.991667,-0.5333333,1
43810,0.0,0.934082,-0.3154297,5.7983400000000005,-0.3051758,2.624512,109.303,0.06591797,106.3586,15.98333,-7.25,0.04166667,1
44020,0.00390625,0.9448242,-0.36425779999999996,6.347656,1.342773,2.868652,109.3689,0.01647949,106.2433,19.26667,-30.83333,12.39167,1
44250,-0.002441406,0.9331054999999999,-0.2880859,1.098633,-0.12207029999999999,0.7324219,109.0887,0.08789063,106.3092,15.94167,-6.841667,-0.06666667,1
44500,0.009765625,0.9589844,-0.3691406,0.7324219,1.098633,2.868652,109.1821,-0.03845215,106.1993,19.34167,-30.90833,12.26667,1
44750,0.005859375,0.9516602,-0.32470699999999997,-4.699707,0.9765625,2.502441,108.9404,0.0,106.2268,16.09167,-5.966667,0.03333333,1
45030,0.005371094000000001,0.9433594,-0.3354492,-0.8544921999999999,0.6713867,0.3662109,108.7976,-0.19226069999999998,106.2927,19.13333,-31.04167,12.21667,1
45290,0.01074219,0.9394530999999999,-0.3603516,-5.737305,2.319336,1.464844,108.3417,-0.3131104,106.2213,15.675,-4.125,0.2333333,1
45520,0.0,0.9545897999999999,-0.42724609999999996,0.0,2.868652,1.342773,108.9459,-0.09338379000000001,105.9082,19.53333,-30.85,12.175,1
45820,0.0,0.9741211,-0.3320313,-4.211426,1.464844,3.90625,108.9569,0.07141113,105.8368,15.83333,-6.575,0.35833329999999997,1
46061,0.002441406,0.9287109,-0.3364258,2.13623,2.258301,0.1831055,108.6987,-0.1263428,106.1279,16.08333,-5.733333,0.1916667,1
46330,-0.001464844,0.9414062999999999,-0.3364258,1.098633,-1.281738,-0.24414059999999999,108.902,-0.08789063,106.1224,19.30833,-30.95833,12.45833,1
46600,-0.0004882813,0.9428711,-0.3422852,0.7324219,-1.159668,-0.12207029999999999,109.1217,0.054931640000000004,105.8533,16.06667,-5.925,0.04166667,1
46900,-0.001953125,0.9389647999999999,-0.34130859999999996,0.12207029999999999,-0.06103516,-0.1831055,109.1876,0.1757813,105.5896,16.04167,-5.875,0.0,1
47170,-0.001464844,0.9384766,-0.34179689999999996,0.0,0.12207029999999999,0.0,109.1437,0.18676759999999998,105.5237,16.025,-5.891667,0.0,1
47530,0.0009765625,0.9409179999999999,-0.3374023,-0.3051758,0.24414059999999999,0.42724609999999996,109.0283,0.1098633,105.4962,19.46667,-30.84167,12.14167,1
47790,0.0004882813,0.9389647999999999,-0.3364258,-0.42724609999999996,0.6103516,0.1831055,108.9569,0.04394531,105.5127,16.04167,-5.791667,-0.06666667,1
48050,0.002929688,0.9409179999999999,-0.3359375,0.0,-0.12207029999999999,0.06103516,108.9624,0.027465820000000002,105.5127,16.05833,-5.691667,-0.025,1
48260,0.0,0.9399413999999999,-0.33300779999999996,0.3051758,-0.5493163999999999,-0.24414059999999999,108.9734,0.005493164,105.5017,19.26667,-31.0,12.11667,1
48490,0.001464844,0.9399413999999999,-0.3364258,0.42724609999999996,-0.4882813,-0.1831055,109.0613,0.027465820000000002,105.4797,16.08333,-5.725,0.05,1
48730,0.0004882813,0.9428711,-0.34033199999999997,-0.3662109,0.1831055,0.0,109.1492,0.04394531,105.4523,19.45,-30.70833,12.175,1
48990,0.002441406,0.9394530999999999,-0.3393555,-0.7324219,0.0,0.3051758,109.0887,-0.03295898,105.4852,16.025,-5.75,-0.1083333,1
49270,0.004394531,0.9462891,-0.3354492,-1.464844,-0.3662109,0.3051758,108.847,-0.1483154,105.4907,19.16667,-30.975,11.85833,1
49560,0.005371094000000001,0.9443359,-0.3344727,0.4882813,0.793457,0.1831055,108.6932,-0.2087402,105.4523,16.05,-5.525,0.008333334000000001,1
49860,0.004882813000000001,0.9423828,-0.3188477,2.624512,-0.9155272999999999,0.0,109.0558,-0.1593018,105.3479,19.15833,-30.81667,11.9,1
50170,0.0004882813,0.9379883,-0.33398439999999996,-2.380371,0.6103516,-0.6713867,108.891,-0.1208496,105.26,15.975,-5.433333,-0.075,1
50470,0.001464844,0.9394530999999999,-0.3349609,-0.3051758,0.06103516,0.0,108.7592,-0.13732909999999998,105.271,19.275,-30.875,11.9,1
50770,0.0009765625,0.9384766,-0.3447266,0.1831055,-0.24414059999999999,0.12207029999999999,108.9075,-0.07141113,105.1721,19.39167,-30.81667,12.11667,1
51050,0.0034179690000000003,0.9404296999999999,-0.34033199999999997,0.24414059999999999,0.1831055,0.1831055,108.9514,-0.08239746,105.1501,16.09167,-5.741667,0.0,1
51300,0.002441406,0.9423828,-0.3344727,-0.24414059999999999,-0.12207029999999999,0.0,108.9679,-0.04394531,105.0623,16.03333,-5.691667,0.01666667,1
51610,0.0004882813,0.9389647999999999,-0.3383789,0.0,0.12207029999999999,0.06103516,108.9844,-0.01647949,105.0018,16.04167,-5.708333,0.01666667,1
51920,0.004394531,0.9360352,-0.331543,0.8544921999999999,-1.403809,-0.8544921999999999,109.1052,-0.03845215,104.9469,16.03333,-5.908333,0.1,1
52250,-0.0009765625,0.9414062999999999,-0.3452148,-0.9765625,0.5493163999999999,0.24414059999999999,109.1821,0.2307129,104.6613,15.95833,-5.65,0.008333334000000001,1
52480,0.002441406,0.9438477,-0.34179689999999996,0.06103516,0.4882813,-0.06103516,109.1327,0.1208496,104.7052,19.44167,-31.075,12.09167,1
52720,0.00390625,0.9394530999999999,-0.3354492,0.3051758,-0.6103516,-0.5493163999999999,109.0668,0.06591797,104.7711,16.05833,-5.825,0.1416667,1
52960,0.002929688,0.9414062999999999,-0.3354492,-0.1831055,0.3051758,0.24414059999999999,109.1876,0.0604248,104.6997,19.54167,-30.825,12.225,1
53210,-0.0004882813,0.9394530999999999,-0.3398438,0.06103516,-0.24414059999999999,0.0,109.1986,0.07141113,104.6503,16.025,-5.775,-0.008333334000000001,1
53490,0.0009765625,0.9394530999999999,-0.34375000000000006,0.0,-0.1831055,-0.1831055,109.1986,0.1098633,104.5239,19.50833,-30.85,12.16667,1
53790,-0.001464844,0.9389647999999999,-0.3442383,-0.42724609999999996,0.24414059999999999,0.0,109.2645,0.1263428,104.4965,16.025,-5.858333,-0.04166667,1
54100,0.0009765625,0.9404296999999999,-0.34082029999999996,-0.3662109,-0.24414059999999999,0.0,109.27,0.1153564,104.5074,19.60833,-30.875,12.075,1
54390,0.001464844,0.9409179999999999,-0.34082029999999996,-0.06103516,-0.5493163999999999,0.0,109.259,0.1043701,104.5129,16.025,-5.825,-0.008333334000000001,1
55690,0.04199219,1.000977,-0.4492188,-31.49414,2.868652,-8.300781,101.3324,0.3076172,105.7159,22.05833,-2.633333,-11.48333,1
55930,-0.05419922,0.9926758,0.01855469,-10.74219,-15.25879,1.159668,84.99573,1.082153,105.3369,17.2,2.333333,-0.7833333,1
56190,-0.03808594,0.9096679999999999,0.05371094,12.87842,22.03369,0.0,85.20996,1.2854,105.65,19.45833,-38.58333,-3.9333329999999997,1
56470,-0.06787109,0.8764647999999999,0.030273440000000002,-2.563477,-11.84082,0.9155272999999999,84.66614,0.7800292999999999,107.9572,15.15,1.425,2.666667,1
56750,0.02978516,0.9931641,0.009765625,12.63428,-50.53711,14.4043,87.2644,-0.7800292999999999,102.0465,17.775,-0.3333333,0.1416667,1
57030,0.08642578000000001,1.383301,-0.1152344,-5.310059,19.89746,-3.78418,88.85193,-1.966553,95.31189,16.76667,-1.3333329999999999,-1.641667,1
57360,-0.01953125,0.965332,-0.1611328,-0.9765625,72.32666,-6.04248,86.96228,-0.28564449999999997,111.4453,17.50833,-2.175,0.4333333,1
57670,-0.04931641,0.9580078,-0.01464844,11.59668,101.0132,-0.12207029999999999,91.3678,-0.1043701,138.3618,16.425,0.4583333,0.44166669999999997,1
57900,-0.04785156,1.098145,-0.1191406,5.737305,68.60352,-10.00977,92.83997,-0.8294678,155.9399,17.05,-2.833333,-1.641667,1
58120,-0.1699219,0.9306641,-0.1254883,-9.338379,-12.20703,-3.601074,90.47791,4.141846,169.2938,-6.683333,-37.2,16.78333,1
58350,0.01464844,1.3198239999999999,-0.13916019999999998,24.04785,-8.728026999999999,-17.02881,93.12561,5.822754,165.1904,16.10833,1.15,3.333333,1
58600,-0.1542969,1.076172,-0.190918,6.347656,-4.821777,30.09033,97.76184,6.778564,169.3378,-5.375,-33.1,21.56667,1
58840,0.011230470000000001,0.8930663999999999,-0.206543,-7.93457,49.43848,-2.258301,95.48767,1.796265,173.5675,15.75,-1.8333329999999999,-1.8666669999999999,1
59110,0.008789063,0.9287109,-0.2514648,-4.02832,33.81348,-2.624512,94.44397,1.7303469999999999,179.9835,22.54167,0.775,2.116667,1
59340,-0.1381836,0.9658203,-0.01025391,8.117676,-3.845215,4.272461,95.90515,-0.6756592,-165.4431,-22.45,-35.06667,16.98333,1
59600,-0.1728516,0.8569336,-0.1367188,-8.789063,-28.25928,-18.73779,96.11389,3.647461,-165.921,16.275,-4.183333,0.2,1
59820,-0.19042969999999998,1.008789,-0.25537109999999996,16.47949,-50.354,2.319336,95.85022,3.55957,-176.2262,-13.56667,-35.94167,18.59167,1
60130,-0.06347656,0.9443359,-0.05224609,0.5493163999999999,11.59668,22.2168,96.79504,5.438232,-175.8142,-13.75833,-35.86666,18.94167,1
60390,0.02148438,0.8330078,-0.24511719999999998,-2.441406,31.73828,2.319336,95.20203,0.6536865,-170.5518,17.06667,-2.883333,-0.375,1
60630,-0.03857422,1.086914,-0.01416016,33.75244,5.7983400000000005,15.56396,98.3551,-1.680908,-162.1967,-25.29167,-35.64167,16.71667,1
60910,0.024902340000000002,0.9213867,-0.1484375,-10.25391,1.403809,-28.68652,98.08044,-1.955566,-158.7744,14.45833,-2.983333,-2.283333,1
61160,-0.10058589999999999,0.9008788999999999,-0.20996089999999998,8.972168,-62.31689,0.6103516,97.00928,1.472168,-161.109,15.66667,-6.883333,2.241667,1
61400,-0.1650391,0.8720703,0.0078125,-0.6103516,-44.49463,-13.06152,99.78333,6.28418,-164.1083,15.28333,-0.01666667,-1.316667,1
61640,0.05078125,0.8046875,-0.15869139999999998,-15.86914,14.89258,13.67188,94.9823,1.312866,-170.8813,-17.68333,-40.00834,15.81667,1
61990,0.05371094,1.043457,0.06347656,24.6582,-5.126953,24.71924,98.54736,-3.718872,-167.6239,17.35833,1.016667,0.7166667,1
62240,-0.10888669999999999,0.8447266,-0.18652339999999998,-12.3291,-24.53613,-18.37158,98.77808,-0.7196045,-165.3992,-20.93333,-38.175,18.16667,1
62460,-0.13476559999999999,0.9428711,-0.34130859999999996,6.652832,-21.24023,-3.540039,98.65723,0.5822754,-170.354,20.925,-2.275,0.35833329999999997,1
62740,-0.1113281,0.9794921999999999,0.06152344,0.24414059999999999,-15.07568,-7.629395,100.0635,4.32312,-170.5133,20.48333,-3.241667,-0.7416667,1
62950,0.1103516,0.7753905999999999,-0.1201172,-17.63916,41.87012,16.90674,95.83923,-0.302124,-171.8591,-17.9,-41.1,17.51667,1
63190,0.1572266,0.9682617,-0.3212891,21.48438,22.82715,-3.234863,97.10266,-1.027222,-165.152,23.54167,0.4583333,1.8333329999999999,1
63450,-0.05126953,0.9765625,-0.1176758,-1.6479489999999999,-19.71436,-15.56396,98.55835,-5.125122,-162.3395,-23.93333,-38.78333,19.09167,1
63731,-0.07470703000000001,0.7758788999999999,-0.2001953,-2.807617,-31.00586,4.02832,97.53113,-0.45593259999999997,-166.5088,17.74167,-4.116667,-0.31666669999999997,1
63970,-0.11425779999999999,1.018066,0.04931641,-3.2958979999999998,6.04248,-13.73291,100.1898,3.856201,-166.5912,-14.60833,-39.925,21.23333,1
64260,0.09765625,0.7763671999999999,-0.11669919999999999,-30.70068,29.29688,9.033203,96.32263,0.6262207,-169.1565,18.575,-2.483333,0.1833333,1
64580,0.02734375,1.146973,0.01757813,18.18848,-17.45605,35.94971,99.87122,-3.812256,-162.0923,-23.74167,-37.375,21.475,1
64870,-0.09130859,0.9042969,-0.2026367,-12.26807,-38.39111,-14.89258,99.13513,-0.4284668,-168.2556,-16.16667,-38.03333,22.48333,1
65140,-0.1542969,0.9428711,-0.3154297,10.68115,-5.859375,-4.699707,99.27795,0.5053711,-172.9303,22.49167,-1.066667,1.033333,1
65401,-0.01171875,1.0698239999999999,-0.11279299999999999,-14.16016,7.507324,18.18848,100.7117,5.921631,-174.6661,17.86667,-2.9333329999999997,-0.7833333,1
65710,-0.09814453000000001,1.078613,-0.159668,-7.995605,23.4375,-3.2958979999999998,98.19031,-0.5053711,-166.2726,18.54167,-6.508333,5.0,1
66010,0.01269531,1.036133,-0.01660156,-16.47949,22.09473,13.67188,100.1678,-5.943604,-162.0538,14.21667,-2.083333,-2.041667,1
66350,-0.08886719,0.8681641,-0.2036133,-2.13623,-63.35449,11.04736,97.65747,-0.027465820000000002,-173.7433,15.4,-3.05,-0.7666666999999999,1
66580,0.06591797,1.129395,0.01611328,14.95361,12.63428,-23.74268,101.684,3.598022,177.8851,-5.975,-33.79167,23.425,1
66820,-0.002929688,0.8652344,-0.07714844,-8.056641,17.57813,43.76221,100.1678,2.631226,-179.2914,14.28333,-4.708333,-2.941667,1
67060,0.1479492,0.9272461,-0.33349609999999996,19.65332,24.96338,2.380371,98.31116,-1.917114,-169.0082,-17.73333,-35.99166,20.09167,1
67300,0.175293,1.059082,0.05126953,8.666992,48.70605,5.615234,101.3214,-6.465454,-162.5702,17.61667,-2.683333,-0.5750000000000001,1
67570,-0.128418,1.007324,-0.253418,-5.371094,-11.84082,-24.4751,100.1514,-3.966064,-157.3132,13.34167,-3.275,-0.7833333,1
67800,-0.20507809999999999,1.1010739999999999,-0.234375,22.15576,-38.69629,-8.666992,100.6348,-0.4394531,-171.3593,-14.26667,-35.36666,22.29167,1
68070,-0.01220703,0.8188477,-0.0009765625,-11.84082,-22.33887,36.68213,99.3219,2.6696779999999998,-177.2369,-10.39167,-36.44167,22.09167,1
68380,0.105957,0.9477538999999999,-0.3134766,-14.4043,66.16211,-8.972168,97.91565,-0.8404541,-174.6661,16.15833,-3.108333,-1.608333,1
68630,0.07519531,1.026855,0.044921880000000004,28.74756,12.81738,21.97266,99.7998,-5.960083,-162.7075,18.375,-0.7000000000000001,0.6000000000000001,1
68890,-0.09277344,0.7958984,-0.28125,-20.75195,-5.432129,-12.81738,98.48694,-2.1698,-157.4725,-23.95833,-37.9,18.99167,1
69310,-0.1835938,0.9956054999999999,0.0546875,-1.037598,-18.55469,-8.911133,100.7281,4.372559,-157.8625,13.53333,0.09166667,-1.558333,1
69630,0.1103516,0.7690429999999999,-0.25537109999999996,-1.281738,52.00195,-8.483887,97.02026,-0.01647949,-163.7787,16.60833,-5.583333,2.033333,1
69910,0.1201172,1.089844,0.0078125,-14.77051,27.83203,12.57324,100.2557,-6.16333,-156.8518,17.08333,-2.4,0.7083332999999999,1
70220,-0.03515625,0.7329102,-0.2504883,-2.563477,-61.40137,9.216309,99.05273,-1.3623049999999999,-160.4059,-20.95833,-37.35833,21.375,1
70530,-0.2109375,1.032227,0.0625,12.26807,34.85107,-31.61621,102.7002,3.114624,-165.7947,18.20833,-1.7,-1.466667,1
70870,0.05712891,0.8662109,-0.2348633,-15.56396,32.4707,13.85498,100.4315,0.5438232,-162.6251,15.23333,-4.866667,-0.8166667,1
71170,-0.2514648,1.14502,0.020996090000000002,10.98633,14.09912,36.43799,99.8877,-1.796265,-154.7754,18.46667,0.425,-0.925,1
71410,0.007324219000000001,0.9677734,-0.2109375,6.652832,-24.53613,-28.93066,100.4425,-1.8182369999999999,-156.3135,-23.175,-35.3,21.24167,1
72640,-0.1567383,1.063477,-0.09863281,4.211426,4.02832,5.126953,100.8435,-6.146851,-153.7756,-26.30833,-34.03333,19.9,1
72870,-0.08007813,0.8759766,-0.2114258,-18.85986,-36.31592,-5.004883,99.63501,-0.401001,-159.5764,16.93333,-4.541667,-0.65,1
73090,-0.203125,0.9389647999999999,-0.37207029999999996,6.652832,-9.033203,-7.263184,99.21753,0.6152344,-163.6084,20.70833,-1.516667,1.8333329999999999,1
73300,-0.17822269999999998,1.02832,0.08496094,4.02832,-15.56396,-5.126953,101.5631,4.487915,-162.6251,17.9,-2.216667,-2.283333,1
73520,0.08203125,0.7612304999999999,-0.21875000000000003,-20.75195,40.58838,-3.2958979999999998,98.49243,0.1098633,-162.4438,-19.325,-36.525,19.79167,1
73760,0.07910156,1.322754,-0.30224609999999996,9.82666,37.78076,18.43262,98.37708,-0.8459473,-156.1707,17.06667,-0.6416666999999999,3.55,1
74040,0.008789063,0.8671875,-0.13134769999999998,9.399414,-29.90723,-35.21729,98.87146,-3.043213,-156.2805,-22.825,-36.025,19.2,1
74300,-0.01367188,0.9443359,-0.24072269999999998,-1.281738,-33.56934,8.544922,97.94861,-0.4229736,-161.944,15.95,-6.458333,1.325,1
74520,-0.2167969,0.9941405999999999,0.07080078000000001,-1.6479489999999999,-29.35791,-5.432129,99.81628,4.5593259999999995,-164.0039,-13.89167,-37.01667,20.65833,1
74800,0.02148438,1.001953,-0.1723633,1.464844,27.09961,30.57861,97.81677,1.966553,-165.0586,13.95833,-2.875,-2.608333,1
75070,0.1801758,1.193848,-0.3110352,39.67285,32.40967,6.896973,97.14661,-0.8624267999999999,-154.4678,17.25833,0.5,3.45,1
75340,0.02978516,0.8432617,-0.078125,6.591797,-28.01514,-28.19824,98.49792,-3.850708,-155.05,-24.70833,-36.19167,18.99167,1
75620,-0.02832031,0.9941405999999999,-0.28125,-8.666992,-37.04834,7.324219,99.22852,-0.04943848,-162.5977,16.74167,-6.816667,0.55,1
75870,-0.2382813,0.9921875,0.10498049999999999,7.019043,10.19287,-23.25439,100.1569,4.103394,-164.7729,19.725,-3.1,-1.308333,1
76210,0.05078125,0.8388671999999999,-0.2167969,-19.28711,24.10889,16.17432,98.62976,0.5273438,-163.3063,15.79167,-4.008333,-1.5833329999999999,1
76440,-0.04638672,1.084473,-0.05810547,14.95361,-33.56934,41.68701,98.55286,-2.889404,-155.9784,-24.16667,-35.875,19.25,1
76690,-0.01025391,1.040039,-0.09033203000000001,-2.441406,-22.76611,-17.15088,98.23975,-5.515137,-156.3354,17.06667,-3.658333,0.7000000000000001,1
76920,0.0078125,0.9697266,-0.2026367,0.9765625,-25.08545,-3.2958979999999998,98.21777,-0.5108642999999999,-167.8546,-16.23333,-36.51667,20.65833,1
77290,-0.07177734,0.9140625,0.1157227,-2.258301,-0.5493163999999999,-12.08496,99.56909,4.454956,-167.3547,18.525,-2.408333,-1.925,1
77530,-0.007324219000000001,0.9882812999999999,-0.19384769999999998,-4.02832,19.34814,27.89307,98.1189,2.559814,-167.2833,13.19167,-3.833333,-0.9833333999999999,1
77740,0.05371094,1.442383,-0.25488279999999996,28.19824,62.19482,10.92529,99.86572,-1.071167,-157.4835,-21.96667,-35.1,19.65833,1
77990,-0.07275391,1.016602,-0.04199219,-6.530762,12.26807,4.638672,100.2667,-7.23999,-154.8743,14.325,-3.058333,0.2833333,1
78270,-0.11425779999999999,0.8432617,-0.2509766,-15.56396,-40.52734,-12.146,99.72839,-1.829224,-157.3901,16.24167,-4.1,-0.8,1
78510,0.2661133,1.364258,-0.1450195,13.5498,0.3662109,-31.18896,100.5688,1.834717,-165.4706,17.63333,2.15,0.47500000000000003,1
78760,-0.02392578,0.9331054999999999,-0.15625,0.24414059999999999,20.32471,32.89795,99.03625,2.6202389999999998,-162.2516,-16.36667,-34.75,19.73333,1
79060,0.06835938,0.9711913999999999,-0.28613279999999996,-4.943848,41.99219,-10.80322,98.2782,-0.34606929999999997,-157.8351,16.175,-6.716667,2.908333,1
79290,-0.04296875,1.012695,0.02734375,-8.728026999999999,29.29688,20.44678,99.90417,-6.37207,-152.2705,16.23333,-2.791667,0.525,1
79570,-0.12695309999999999,0.9433594,-0.24560549999999998,-5.371094,-26.48926,-23.98682,99.97559,-2.763062,-152.8033,14.2,-4.1,-1.158333,1
79960,-0.05957031,0.9824219,0.03564453,5.67627,-23.68164,-14.5874,99.82727,5.196533,-160.1752,-13.775,-35.05833,19.225,1
80290,0.10107419999999999,0.7802734,-0.2246094,-8.728026999999999,43.21289,-2.990723,97.28394,-0.2636719,-158.9227,-19.73333,-36.20833,17.04167,1
80620,0.1542969,1.197754,-0.06005859,7.93457,8.239746,15.74707,100.7611,-5.081177,-153.5889,16.74167,0.24166669999999998,-0.6833332999999999,1
80950,-0.07275391,0.7861328,-0.1958008,-10.74219,-40.58838,-4.089355,98.56384,-1.268921,-155.5829,17.09167,-4.0,-0.1333333,1
81170,0.052734380000000004,1.058105,-0.1479492,9.277344,21.42334,-36.68213,100.7062,2.15332,-161.5485,-15.3,-35.0,20.00833,1
81400,-0.015136720000000001,1.006348,-0.06103516,-7.263184,-20.81299,16.35742,100.2448,5.542603,-165.2618,17.0,-3.666667,-1.908333,1
81670,-0.006835938000000001,0.7573242,-0.22070309999999999,-21.78955,28.68652,9.521484,97.91016,0.6317138999999999,-164.8499,16.65,-2.3,-0.7666666999999999,1
81890,0.08349609,1.216797,-0.3911133,18.73779,33.38623,5.981445,98.55835,-0.8514404,-158.7305,17.50833,-0.5,3.725,1
82090,0.06738281,1.091797,-0.1689453,-9.94873,0.24414059999999999,-20.62988,97.66846,-6.619263,-155.2917,-23.48333,-35.525,17.65833,1
82380,-0.05175781,1.001953,-0.1948242,-0.3662109,-24.53613,3.356934,96.80054,-0.5712891,-160.2521,-17.24167,-37.475,17.925,1
82770,-0.08056641,0.9438477,-0.017089840000000002,-2.624512,6.591797,28.44238,98.49792,4.960327,-163.8007,-12.00833,-36.425,20.10833,1
83070,0.09228516,0.8203125,-0.21728519999999998,-7.69043,38.08594,-6.530762,97.51465,-0.45593259999999997,-160.0708,17.24167,-3.05,-1.691667,1
83330,0.1020508,0.9648437999999999,0.03125,24.6582,-24.6582,22.70508,99.05273,-3.614502,-153.2813,-23.50833,-35.575,18.79167,1
83600,-0.1362305,0.9428711,-0.1914063,-6.469727,-52.91748,-22.09473,98.29468,-1.472168,-156.0773,-18.76667,-36.26667,19.36667,1
83890,-0.024902340000000002,0.9873046999999999,-0.184082,-6.9580079999999995,-23.25439,4.211426,97.82227,0.4174805,-165.9485,18.0,-7.65,3.366667,1
84130,-0.0703125,0.9711913999999999,0.0625,3.417969,-36.13281,-10.86426,99.85474,4.998779,-169.2059,14.975,-0.5416667,-1.883333,1
84420,0.1079102,0.8198242,-0.1992188,-7.202148,45.8374,-6.530762,97.20154,-0.3570557,-166.2616,17.125,-3.325,-1.35,1
84761,0.1713867,0.9848633,0.09912109000000001,16.78467,-17.57813,22.94922,98.14087,-4.108887,-161.1639,16.65833,1.791667,-1.033333,1
85030,-0.1103516,0.9194336,-0.2348633,-4.943848,-59.021,-18.73779,98.5199,-1.30188,-166.7505,15.16667,-6.45,-1.25,1
85450,-0.20556639999999998,1.164551,0.1499023,5.126953,13.42773,-21.3623,101.0083,4.564819,-175.7043,17.76667,-0.9333332999999999,-2.291667,1
85800,-0.00390625,0.9067383,-0.25439449999999997,2.746582,39.18457,-8.178711,99.55811,0.401001,-169.2993,-10.45,-35.78333,19.15833,1
86080,-0.7827147999999999,1.7163089999999999,0.03125,-11.71875,28.56445,43.64014,99.94263,-1.8731689999999999,-162.9108,18.98333,1.3,0.9833333999999999,1
86320,0.0004882813,0.9404296999999999,-0.1103516,12.63428,-29.60205,-23.07129,100.0195,-1.94458,-166.2451,-12.25,-34.88334,19.69167,1
86560,-0.03417969,0.8867187999999999,-0.29345699999999997,-4.821777,-36.86523,-10.13184,100.1733,0.6207275,-170.0244,15.69167,-3.766667,-1.875,1
86830,-0.10498049999999999,0.9887695,0.0034179690000000003,8.972168,-8.239746,-11.35254,101.1401,4.87793,-179.176,-1.566667,-34.45,19.58333,1
87080,0.006835938000000001,1.006348,-0.1962891,2.868652,-7.019043,33.08105,99.1571,4.476929,176.7371,14.00833,-3.766667,-1.841667,1
87340,0.09423828000000001,0.9453125,-0.3447266,13.67188,15.56396,4.211426,97.8772,-0.5603026999999999,-176.5723,-8.641666,-36.25834,18.35833,1
87630,-0.07324219,1.086426,-0.05175781,-5.432129,8.422852,-20.44678,100.9039,-5.679932,-170.4529,17.70833,-2.691667,0.5916667,1
87940,-0.11083979999999999,0.7802734,-0.140625,-14.16016,-39.97803,-12.3291,99.22852,-0.01647949,-170.9363,17.24167,-2.641667,-0.40833329999999995,1
88240,-0.03759766,0.8891602,-0.001464844,-2.563477,-31.61621,-3.234863,98.55286,4.784546,-174.6442,15.6,-2.491667,1.75,1
88550,0.06103516,0.9760742,-0.2314453,14.03809,47.54639,-20.75195,97.89368,0.6756592,-176.4954,-6.375,-36.96667,17.475,1
89830,-0.02978516,0.8623046999999999,-0.1933594,-7.507324,57.06787,-9.521484,99.52515,1.6149900000000001,-177.2864,-4.958333,-35.825,18.60833,1
90130,-0.40380859999999996,1.227051,0.01953125,0.9765625,0.24414059999999999,43.94531,100.1459,-0.9283446999999999,-173.9905,16.15833,1.316667,-1.3,1
90380,-0.03417969,1.086914,-0.1967773,15.01465,-40.40527,-29.35791,101.7773,-1.851196,-175.3638,-5.725,-34.28333,20.75833,1
90650,-0.01318359,0.9931641,-0.20166019999999998,-7.141113,-33.3252,8.789063,100.0195,1.203003,175.6879,17.60833,-5.7,2.158333,1
90990,-0.08789063,1.1533200000000001,-0.08447266,-11.96289,6.408691,4.455566,100.069,5.998535,174.7375,17.15833,-2.716667,-0.7083332999999999,1
91300,-0.05078125,1.097168,-0.22949219999999998,-6.591797,42.84668,-1.403809,98.67371,0.7086182,-179.3628,17.55833,-6.058333,3.191667,1
91540,-0.1635742,0.9257812999999999,0.0859375,21.97266,4.394531,23.19336,100.047,-1.829224,-176.0669,17.60833,0.9416667,-0.725,1
91750,-0.1474609,0.9697266,-0.1137695,3.417969,-22.52197,-23.19336,100.3217,-3.2958979999999998,-175.3473,15.95,-2.525,0.425,1
91980,-0.1474609,0.9697266,-0.1137695,3.417969,-22.52197,-23.19336,100.3217,-3.2958979999999998,-175.3473,16.24167,-2.65,-1.391667,1
92200,0.01220703,0.9814453,-0.18212889999999998,17.33398,2.197266,-19.9585,102.2223,3.878174,168.6182,16.15833,1.466667,0.1916667,1
92440,-0.1176758,0.9765625,-0.24072269999999998,-7.446289,10.62012,27.03857,101.1676,3.070679,167.7338,3.75,-33.66667,18.28333,1
92690,-0.06396484,0.9824219,-0.11083979999999999,-18.9209,16.72363,-0.12207029999999999,99.17908,1.005249,171.3593,17.625,-6.908333,2.25,1
92970,-0.02392578,0.8935546999999999,0.01269531,-5.493164,62.56104,12.57324,101.2335,-2.763062,-177.5336,-8.875,-34.41667,20.10833,1
93260,-0.03417969,0.8579102,-0.2084961,-4.882813,-36.19385,-7.019043,99.97009,1.642456,-177.6654,-3.858333,-34.4,19.65,1
93500,-0.0859375,0.9643554999999999,-0.2192383,-9.521484,-24.23096,2.502441,99.49768,2.285156,179.0057,16.91667,-4.458333,1.175,1
93760,-0.19042969999999998,1.010254,-0.017089840000000002,14.95361,1.586914,-19.104,102.3212,5.674438,171.8536,16.99167,-1.6,0.3333333,1
94000,0.0004882813,0.8164062999999999,-0.1948242,-22.15576,3.2958979999999998,25.57373,99.28345,4.213257,163.916,14.95833,-5.375,-0.17500000000000002,1
94270,-0.2993164,1.2998049999999999,-0.1474609,-3.051758,4.821777,33.44727,100.0964,0.637207,166.6956,2.0,-36.16667,17.13333,1
94560,-0.1103516,1.116211,-0.08154297,-3.356934,2.563477,4.760742,100.8655,-3.103638,163.8666,14.875,-2.783333,1.475,1
94820,-0.041015630000000004,0.9301758,-0.25488279999999996,-9.765625,-37.41455,5.859375,100.4865,1.763306,154.4403,8.458333,-36.30833,14.56667,1
95100,-0.17382809999999999,1.067383,0.04541016,-4.699707,-8.239746,-18.73779,103.1396,6.817017,154.0448,19.06667,-3.433333,-3.816667,1
95430,0.001953125,0.777832,-0.26269529999999996,-13.42773,13.67188,1.525879,100.3162,2.850952,154.4183,17.425,-3.0,-4.041667,1
95740,-0.1367188,0.9409179999999999,0.07226563,16.90674,-4.638672,34.729,99.97009,-0.2087402,157.8735,17.45,0.875,-0.3333333,1
95980,-0.1333008,0.9711913999999999,-0.1015625,5.92041,-8.666992,-17.15088,100.8215,-3.032227,160.752,16.7,-3.475,0.03333333,1
96190,-0.08251953000000001,0.9667969,-0.2045898,-8.911133,-25.63477,3.662109,99.92065,2.224731,151.106,8.9,-37.2,15.15,1
96420,0.13525389999999998,0.9853516,-0.05908203,0.6103516,38.63525,-42.41943,101.629,4.603271,148.5406,15.94167,-0.05833333,-1.016667,1
96660,0.01660156,0.9624022999999999,-0.22900389999999998,-6.286621,34.97314,20.81299,99.61304,4.482422,150.6171,10.50833,-36.31667,15.91667,1
96920,-0.07958984,0.9521484,-0.08300781,-15.86914,18.12744,1.586914,97.1521,2.384033,156.9781,20.41667,-4.733333,3.658333,1
97210,-0.02783203,0.9296875,0.09912109000000001,-12.20703,12.63428,14.22119,99.35486,-1.318359,157.2034,3.908333,-37.70833,18.00833,1
97500,-0.05957031,0.8251953,-0.2114258,2.868652,-42.96875,6.103516,99.25598,3.378296,149.4855,16.50833,-2.775,-0.31666669999999997,1
97810,-0.20947269999999998,1.09375,-0.01025391,9.338379,-4.943848,-19.47021,102.1344,7.272949,145.459,16.73333,-33.36666,15.275,1
98100,0.04052734,0.8227538999999999,-0.23779299999999998,-14.5874,36.68213,25.93994,98.20679,4.449463,140.5426,16.98333,-5.316667,-0.525,1
98421,0.017089840000000002,0.9477538999999999,0.03320313,13.24463,-20.20264,31.98242,98.14087,-0.2581787,148.8593,8.233334,-37.69167,15.81667,1
98710,-0.007324219000000001,0.9790038999999999,-0.2124023,4.882813,-24.16992,-31.43311,99.44824,0.9613037,145.1074,12.35,-36.33333,14.41667,1
98980,-0.078125,1.025879,-0.2158203,11.53564,-21.66748,-8.605957,99.68445,3.306885,139.3176,25.65833,-3.433333,4.7,1
99240,-0.1074219,1.029785,-0.06689453000000001,-9.460449,-21.11816,-5.554199,102.1344,8.981323,138.3783,15.46667,-2.325,-0.9500000000000001,1
99550,0.01953125,0.902832,-0.21875000000000003,-5.92041,29.60205,-5.432129,98.45398,4.21875,132.9785,16.00833,-5.141667,2.075,1
99850,0.08886719,1.058594,0.04541016,7.019043,35.64453,2.075195,100.5963,-0.13732909999999998,137.0819,16.55833,-0.325,1.375,1
100191,-0.07275391,0.8911133,-0.28564449999999997,-6.469727,-37.23145,1.953125,101.1566,3.900146,131.1603,16.6,-3.441667,-2.541667,1
100560,-0.12207029999999999,0.9946288999999999,0.02978516,0.0,-25.08545,-8.666992,102.0135,8.140869,125.2826,17.8,-0.925,-2.65,1
100810,-0.03564453,0.9360352,-0.1884766,-4.455566,18.49365,26.06201,99.73938,6.080933,123.9148,14.30833,-4.625,-1.308333,1
101030,0.2416992,1.103516,-0.34863279999999996,23.4375,34.36279,3.662109,99.58557,2.6971439999999998,132.2479,18.01667,-33.39167,10.4,1
101260,-0.05224609,0.9345703,0.05908203,-11.35254,22.52197,16.47949,100.2832,-1.620483,133.9948,15.78333,-2.275,1.166667,1
101500,-0.05761719,0.9047852,-0.2421875,-5.187988,-29.78516,-20.87402,100.882,2.532349,129.8254,14.10833,-3.841667,-0.8666667,1
101780,-0.1650391,1.180664,-0.2661133,18.85986,-32.16553,-12.3291,100.6512,4.905396,121.8109,17.90833,0.01666667,0.40833329999999995,1
102030,-0.04541016,0.8818359,-0.1420898,-1.098633,-3.234863,33.81348,98.55286,6.932373,119.0094,24.63333,-31.01667,1.9916669999999999,1
102330,0.03222656,0.921875,-0.3056641,7.080078,-4.638672,2.929688,97.45972,3.059692,123.5907,22.66667,0.1,0.9333332999999999,1
102640,-0.1538086,1.04541,-0.15820309999999999,-0.3662109,-10.80322,-18.98193,99.46472,-1.488647,125.9363,19.6,-32.9,5.366667,1
102940,-0.03955078,0.9077147999999999,-0.1962891,-15.93018,-23.19336,2.502441,97.09167,3.334351,110.9015,24.525,-32.65833,-4.883333,1
103210,-0.1303711,1.010254,-0.06445313,23.31543,22.88818,-13.91602,99.46472,6.05896,110.6818,15.54167,0.2916667,0.3916667,1
103450,0.0703125,0.8969727,-0.3032227,-16.6626,-10.49805,19.53125,97.62451,3.812256,102.9254,25.25833,-33.05833,-9.133333,1
103750,-0.22949219999999998,1.226563,0.03662109,20.69092,27.16064,24.59717,97.84424,1.389771,104.4086,18.65833,0.24166669999999998,0.35000000000000003,1
104070,-0.0078125,0.8974609,-0.2202148,1.098633,-11.96289,-10.13184,99.29443,2.120361,105.683,15.31667,-4.8,-1.166667,1
104380,-0.09667969,1.239258,-0.2084961,26.24512,-5.92041,-21.05713,98.98132,3.279419,104.5679,18.45,-0.6583333,0.7916667,1
104710,0.004882813000000001,0.8779296999999999,-0.08300781,-8.056641,24.96338,28.44238,98.04749,5.723877,108.0231,15.15,-3.333333,-3.875,1
105010,-0.04296875,0.9477538999999999,-0.25439449999999997,-1.281738,8.605957,-9.58252,95.33386,1.94458,117.9108,21.94167,1.466667,2.425,1
105260,-0.1196289,0.9765625,-0.04833984,13.42773,-13.00049,-9.338379,98.81104,-0.8953857,120.2509,19.70833,-35.725,2.266667,1
105490,-0.008789063,0.8940429999999999,-0.2714844,1.220703,-36.25488,1.6479489999999999,98.55835,3.103638,114.95,14.90833,-3.15,-1.883333,1
105770,0.03564453,0.9521484,-0.08984375,11.47461,30.33447,-31.43311,98.30566,5.581055,107.0673,25.55833,-34.06667,-5.2,1
106990,-0.1914063,1.109863,-0.22949219999999998,27.9541,-25.87891,-12.02393,98.05847,2.230225,104.068,16.63333,-0.9166667,2.833333,1
107250,-0.09179688,0.9140625,-0.004882813000000001,-11.59668,-17.57813,-15.99121,99.27795,7.250977,105.8313,16.15,-3.083333,0.1166667,1
107490,-0.006347656,0.7597655999999999,-0.2890625,2.441406,35.15625,-7.8125,97.18506000000001,2.823486,108.891,16.45,-3.783333,-1.983333,1
107750,-0.1806641,1.087891,0.01220703,2.807617,4.516602,32.71484,98.41553,0.9338379,111.2091,17.375,1.066667,-0.8166667,1
107970,-0.1254883,0.8891602,-0.15625,7.995605,-46.875,-16.41846,99.1571,0.6866455,110.7257,14.29167,-3.875,-1.875,1
108271,-0.10058589999999999,1.199707,-0.27050779999999996,22.03369,-23.07129,-13.48877,99.12964,2.686157,98.86597,24.73333,-39.51667,-5.808333,1
108570,-0.011230470000000001,0.9042969,-0.1118164,-4.638672,7.995605,26.67236,98.23425,5.927124,101.684,26.08333,-37.91667,-4.516667,1
108850,-0.01660156,0.8706054999999999,-0.2563477,-0.6713867,40.89355,-5.981445,97.03125,2.713623,108.078,15.85833,-5.058333,1.208333,1
109090,0.07958984,1.011719,0.044921880000000004,-3.2958979999999998,16.54053,12.51221,99.21753,-1.741333,113.681,18.925,-41.15,2.8083329999999997,1
109380,-0.1210938,0.8178711,-0.2109375,-6.9580079999999995,-31.43311,2.868652,98.82751,2.526855,105.8313,17.24167,-3.625,-0.7666666999999999,1
109710,-0.1293945,1.086914,-0.008789063,5.432129,34.24072,-25.39063,100.8929,5.586548,102.887,17.21667,-1.758333,-0.7416667,1
110010,0.03271484,0.8710937999999999,-0.2348633,-10.80322,15.31982,10.98633,99.41528,3.592529,102.6508,14.68333,-4.35,-0.6166667,1
110370,0.07910156,1.03418,0.04541016,-13.48877,27.40479,15.38086,100.3491,-2.142334,109.6216,19.21667,-41.88334,3.758333,1
110640,-0.1025391,0.9624022999999999,-0.215332,1.281738,-27.22168,-17.02881,99.47571,-0.4174805,109.8962,13.75833,-3.4,-1.8666669999999999,1
110890,-0.1831055,1.108887,-0.3134766,24.84131,-9.94873,-14.77051,99.09119,2.070923,100.9973,24.7,-37.65833,-1.266667,1
111130,-0.06494141,1.029297,-0.06298828000000001,-2.075195,-24.90234,-19.34814,100.4535,6.674194,103.2495,14.08333,-1.683333,-0.8333332999999999,1
111360,0.052734380000000004,0.8525391,-0.24414059999999999,-13.91602,26.24512,12.3291,98.70667,3.032227,104.3536,14.03333,-4.466667,-0.9833333999999999,1
111570,-0.3032227,1.022949,0.06835938,-9.82666,4.272461,44.55566,98.90991,0.6097412,113.0054,20.775,-36.36666,4.708333,1
111820,-0.1518555,0.9721679999999999,-0.10058589999999999,8.728026999999999,-30.63965,-21.91162,99.02527,-2.713623,112.2748,16.49167,-3.3,0.48333329999999997,1
112110,-0.02832031,0.9848633,-0.22070309999999999,-11.1084,-9.765625,4.02832,98.30017,1.9006349999999999,100.5469,19.06667,-4.8,3.416667,1
112380,-0.04638672,1.012207,-0.07861328000000001,-5.67627,-30.15137,-15.56396,100.1074,7.020264,100.4315,27.99167,-32.16667,-2.083333,1
112680,0.04736328,0.8212891,-0.1728516,-12.39014,33.75244,11.84082,98.32214,3.048706,102.9474,14.91667,-5.008333,0.0,1
112930,-0.5063477,1.2783200000000001,0.07373047,-14.28223,23.4375,51.69678,98.64624,0.3131104,110.0226,20.85,-36.16667,2.858333,1
113190,-0.06884766,0.9423828,-0.15625,3.723145,-47.54639,-20.56885,98.50891,-0.027465820000000002,105.6335,23.0,-35.725,-0.225,1
113500,-0.06787109,0.921875,-0.1967773,-9.765625,-18.73779,5.371094,97.76184,1.2854,98.03101,19.51667,-4.583333,3.408333,1
113780,-0.08251953000000001,0.9770508,0.008300781,-7.873535,-21.78955,-20.32471,99.05823,6.959839,99.60205,15.28333,-1.4583329999999999,-1.383333,1
114010,0.04736328,0.8227538999999999,-0.2470703,-2.807617,43.02979,-14.28223,96.71814,2.796021,103.3429,25.0,-34.91667,-2.041667,1
114320,-0.20996089999999998,0.9628905999999999,-0.05078125,-28.38135,-8.605957,56.21338,97.40479,-0.8679199,109.0009,18.03333,0.6166667,-1.825,1
114570,-0.18945309999999999,0.9350586,-0.1601563,8.605957,-29.78516,-20.99609,99.17358,-0.4614258,111.0278,14.03333,-3.125,-1.9000000000000001,1
114900,-0.1708984,1.046387,-0.27001949999999997,18.06641,-21.48438,-12.63428,99.41528,2.433472,99.39331,17.725,-0.3833333,0.725,1
115110,0.001953125,0.9125977,-0.08300781,0.3051758,28.86963,23.4375,98.42102,6.157837,104.5624,25.71667,-32.975,0.5083333,1
115370,-0.02685547,0.875,-0.1879883,-17.08984,35.09521,-4.272461,98.09143,2.680664,111.308,16.5,-6.733333,1.9000000000000001,1
115600,-0.5317383,1.316406,0.15478519999999998,-13.06152,42.5415,51.63574,98.9978,0.5657959,117.2571,18.5,0.7083332999999999,0.05833333,1
115810,-0.1020508,0.9365234,-0.1987305,3.662109,-41.87012,-16.8457,100.0964,0.45593259999999997,115.6311,20.54167,-34.25834,5.966667,1
116110,-0.07519531,0.8740234,-0.1987305,-4.150391,-31.49414,1.220703,98.81653,2.614746,108.0286,17.04167,-4.95,2.25,1
116340,-0.1479492,1.009766,0.008300781,-3.845215,-32.71484,-6.774902,100.6293,7.487183,106.5674,26.775,-31.45833,0.7416667,1
116610,0.005859375,0.8618163999999999,-0.21289059999999999,-3.90625,37.59766,-5.981445,97.93762,3.169556,105.8533,23.39167,-34.45,1.083333,1
116910,-0.25439449999999997,1.547852,-0.1152344,-4.577637,31.25,30.88379,98.65723,1.796265,112.1649,17.1,1.125,1.7083329999999999,1
117160,-0.02587891,0.9687500000000001,-0.23779299999999998,13.5498,-29.72412,-23.74268,100.437,0.4998779,111.2256,21.83333,-34.25,4.366667,1
117430,-0.12695309999999999,0.921875,-0.4135742,14.22119,-17.08984,-4.394531,100.2502,3.724365,99.76135,24.85,-34.375,-1.15,1
117730,-0.2319336,1.024414,-0.04394531,-3.967285,-29.66309,-11.2915,101.4423,7.503662,101.651,14.2,-0.6083333,-2.533333,1
118030,-0.1445313,1.052246,-0.2807617,-2.624512,6.9580079999999995,-0.9155272999999999,98.89893000000001,3.433228,105.6555,23.61667,-34.36666,0.65,1
118350,-0.1538086,0.9199219,-0.1030273,13.06152,-28.25928,-13.48877,100.1184,-1.235962,107.1497,20.78333,-35.98333,3.05,1
118680,-0.07421875,0.9501953,-0.24511719999999998,-1.586914,-19.22607,2.319336,100.1678,3.197021,97.65747,15.35833,-7.166667,3.041667,1
118980,-0.12695309999999999,1.055176,-0.1523438,-6.164551,-24.6582,-10.98633,102.2607,7.646484,98.42651,14.21667,-1.225,-0.008333334000000001,1
119290,-0.03369141,0.8344727,-0.2758789,7.019043,25.32959,-8.483887,100.2557,3.570557,101.8103,16.675,-5.083333,0.7916667,1
119640,-0.15136719999999998,1.049805,-0.17822269999999998,4.272461,-13.24463,-16.29639,101.0468,-1.7248539999999999,105.7269,19.91667,-35.825,3.166667,1
119930,-0.01367188,0.7905272999999999,-0.203125,-11.53564,-29.47998,4.211426,99.81079,1.889648,100.5634,16.38333,-3.458333,-0.65,1
120170,-0.04833984,1.268066,-0.2241211,25.75684,-18.98193,-13.00049,100.3217,2.515869,96.24023,17.85,-0.6666667,2.983333,1
120380,-0.04931641,0.9047852,-0.11669919999999999,-0.06103516,14.22119,25.08545,99.87122,5.509644,98.41553,24.425,-33.49166,-0.6416666999999999,1
120640,0.001953125,0.9702147999999999,-0.24560549999999998,3.2958979999999998,-9.94873,6.408691,100.1788,2.911377,103.6725,22.86667,-33.96667,2.066667,1
120890,0.18603519999999998,0.9267578,0.1025391,26.00098,-15.74707,0.5493163999999999,100.5853,-1.016235,106.6168,17.725,0.4333333,0.625,1
121180,-0.005371094000000001,0.9584961,-0.20947269999999998,5.615234,-26.9165,-20.26367,100.4865,0.34606929999999997,104.1833,14.8,-4.7,-1.75,1
121410,-0.005371094000000001,0.9584961,-0.20947269999999998,5.615234,-26.9165,-20.26367,100.4865,0.34606929999999997,104.1833,16.425,-5.825,0.5833332999999999,1
121660,0.03417969,0.9702147999999999,-0.04931641,-14.28223,-10.86426,18.43262,98.64624,6.004028,96.26221,25.91667,-33.85833,-3.491667,1
121960,0.004394531,0.8188477,-0.19775389999999998,-10.0708,25.26855,-6.347656,97.48718,2.49939,96.33362,18.1,-2.975,-0.775,1
122240,-0.07861328000000001,1.152832,0.15820309999999999,18.06641,11.35254,23.68164,98.66272,0.269165,103.2001,16.19167,0.8083332999999999,-1.65,1
122490,-0.07226563,0.9790038999999999,-0.2885742,-1.89209,-18.79883,-8.972168,100.0085,1.224976,101.7938,14.3,-4.058333,-0.9916666999999999,1
122810,-0.1113281,1.233887,-0.2646484,24.04785,-22.09473,-11.2915,100.3326,1.757813,92.64771,26.44167,-33.00834,-0.05833333,1
124080,-0.04785156,0.9614258,-0.28125,-6.347656,-18.12744,4.577637,99.28894,1.691895,91.06018,16.20833,-6.866667,-0.75,1
124350,-0.2114258,1.011719,0.1318359,-3.662109,-21.97266,-13.00049,98.77258,6.009521,93.22449,17.03333,0.35833329999999997,-1.55,1
124620,0.1176758,0.7753905999999999,-0.2573242,-9.521484,30.33447,-11.53564,98.0365,2.076416,92.29614,17.2,-3.55,-2.266667,1
124961,0.06201172,1.094727,0.08251953000000001,7.141113,-0.12207029999999999,22.88818,100.2502,-2.69165,98.5199,17.43333,-1.541667,1.116667,1
125160,0.08251953000000001,0.902832,-0.1489258,7.69043,-20.20264,-29.29688,100.3107,-0.49438479999999996,97.58606,14.6,-4.283333,-1.9916669999999999,1
125380,-0.09570313,0.9580078,-0.27880859999999996,-5.981445,-37.10938,8.544922,99.17908,2.109375,90.53833,16.5,-8.183333,2.2,1
125590,0.10107419999999999,0.9697266,-0.04785156,-4.638672,65.91797,-51.2085,100.8105,5.317383,89.74182,18.83333,-3.2,-0.36666669999999996,1
125800,0.1015625,0.8745117,-0.2578125,0.3662109,34.60693,5.249023,100.2887,2.6696779999999998,92.0929,25.13333,-33.96667,-2.966667,1
126040,0.1015625,0.9697266,-0.34863279999999996,12.93945,-7.080078,6.774902,100.3656,2.570801,96.72363,25.48333,-0.1,-0.5750000000000001,1
126290,-0.22949219999999998,1.062012,-0.1191406,1.6479489999999999,-11.53564,-10.49805,101.9696,-3.625488,102.464,19.59167,-35.7,4.258333,1
126530,-0.05175781,0.8540038999999999,-0.2397461,-15.68604,-48.33984,3.234863,100.4865,0.802002,95.14709,15.43333,-4.116667,-1.858333,1
126810,-0.1079102,1.025391,-0.06542969,15.86914,18.31055,-28.32031,100.816,3.724365,89.198,27.01667,-33.4,-4.475,1
127100,0.02978516,0.8598633,-0.1953125,0.12207029999999999,29.84619,20.1416,99.2395,2.993774,89.06067,26.025,-34.56667,-4.675,1
127360,-0.04541016,1.026855,-0.300293,-4.882813,12.45117,4.516602,99.22302,1.7248539999999999,96.59729,22.68333,-35.33333,1.433333,1
127660,-0.06835938,0.9819336,-0.09960938,13.48877,-22.33887,-20.50781,99.94263,-4.020996,100.7776,16.15833,-4.108333,0.48333329999999997,1
127890,-0.09082031,0.8139647999999999,-0.24414059999999999,-21.05713,-26.79443,-0.06103516,100.3546,1.203003,96.20728,17.03333,-4.725,-1.45,1
128130,-0.011230470000000001,0.9731445,-0.03662109,6.408691,32.16553,-42.23633,99.97559,4.592285,93.03223,16.81667,-0.3333333,-1.216667,1
128440,0.02783203,0.777832,-0.1762695,-12.02393,13.30566,23.86475,98.56934,3.2958979999999998,93.19702,26.325,-34.66667,-2.525,1
128730,-0.3911133,1.416992,-0.02587891,-29.05273,33.93555,43.88428,99.99756000000001,0.2307129,97.9541,18.8,0.47500000000000003,1.133333,1
129060,-0.048828130000000004,0.902832,-0.2070313,5.859375,-25.57373,-25.45166,101.2061,-1.5051269999999999,97.91016,13.775,-4.3,-2.091667,1
129370,-0.2324219,0.9291992,-0.4453125,10.31494,-29.47998,-5.310059,100.9753,1.345825,88.31909,17.4,-1.475,0.925,1
129600,-0.1098633,1.001465,-0.06396484,-4.577637,-34.30176,-17.63916,101.4972,6.207275,88.89038,15.28333,-1.625,-1.4583329999999999,1
129820,0.04638672,0.8320312999999999,-0.1875,-6.408691,24.29199,18.49365,99.31641,2.845459,90.53284,13.225,-4.566667,-1.225,1
130030,-0.3129883,1.511719,-0.1132813,-4.516602,39.36768,36.01074,100.5963,0.27465819999999996,97.6355,24.24167,-36.3,2.25,1
130270,-0.121582,1.063965,-0.1835938,12.57324,-2.807617,-23.86475,101.1401,-4.103394,100.6622,14.71667,-3.741667,-0.85,1
130510,-0.04052734,1.016113,-0.2675781,-8.056641,-18.79883,1.403809,100.3766,1.73584,93.81775,27.88333,-35.29167,0.03333333,1
130780,-0.04931641,1.11084,-0.05029297,18.55469,17.02881,-34.79004,100.6952,5.097656,93.52112,17.80833,-0.725,-0.075,1
131050,0.06835938,0.7705078,-0.17871089999999998,-12.146,30.09033,18.9209,99.10217,2.664185,93.62,30.78333,-35.79167,0.24166669999999998,1
131330,-0.3144531,1.407715,0.006347656,-14.64844,28.44238,30.57861,100.2393,0.4119873,102.0135,28.25833,-36.775,3.925,1
131590,-0.11669919999999999,1.023438,-0.1191406,5.126953,-31.06689,-12.57324,100.1019,-2.927856,100.9039,15.66667,-3.55,1.066667,1
131870,-0.06445313,0.8935546999999999,-0.2475586,-10.13184,-30.63965,6.774902,99.67896,1.483154,86.02295,29.43333,-37.28333,-9.541667,1
132130,-0.1757813,1.098633,-0.09277344,-0.7324219,-22.82715,-16.35742,101.684,5.811768,85.7428,31.71667,-33.29167,-8.591666,1
132430,0.05908203,0.8417969,-0.1567383,-0.9765625,35.21729,18.18848,99.47021,2.488403,88.92334,13.05,-5.008333,-1.2,1
132690,-0.2182617,1.175293,0.04248047,-14.09912,4.272461,49.62158,100.5743,0.4998779,97.80029,17.675,0.6583333,-1.041667,1
132970,-0.105957,0.9482421999999999,-0.2104492,6.103516,-31.31104,-20.56885,100.8435,-0.8184813999999999,98.15186,13.075,-4.791667,-2.533333,1
133290,-0.1538086,1.276367,-0.34814449999999997,35.52246,-33.5083,-12.146,100.2777,1.40625,86.83594,19.075,1.883333,1.933333,1
133610,-0.03076172,0.8955078,-0.06933594,3.051758,28.01514,34.36279,99.85474,5.355835,87.92358,13.90833,-3.333333,-1.075,1
133830,0.04589844,0.9169921999999999,-0.3701172,-1.220703,46.14258,-23.80371,99.63501,1.571045,93.11462,14.41667,-6.091667,1.9583329999999999,1
134050,-0.1333008,0.8833008,0.05566406,1.098633,-9.94873,44.55566,100.3876,-0.8129883,98.0365,18.83333,1.058333,-1.125,1
134270,-0.08154297,0.8950195,-0.2075195,0.5493163999999999,-43.33496,-24.84131,100.9314,-0.8294678,95.51514,25.1,-34.45833,0.6666667,1
134500,0.002929688,0.9892578,-0.27050779999999996,2.380371,-3.173828,-1.403809,100.9644,1.219482,88.48389,18.975,-5.633333,1.275,1
134740,0.001464844,1.099609,-0.1494141,4.089355,-27.52686,-15.50293,102.453,7.443237,86.47888,31.08333,-30.6,-4.008333,1
135000,0.0703125,0.7895508,-0.22949219999999998,-12.20703,26.30615,11.23047,101.4368,2.609253,88.42896,15.01667,-6.075,0.05833333,1
135300,-0.3110352,1.095215,0.07568359,-7.141113,22.64404,41.80908,101.3434,0.2966309,95.19104,19.11667,1.116667,-0.2166667,1
135580,-0.02734375,0.8793945,-0.24072269999999998,5.859375,-42.60254,-21.97266,101.9476,0.2362061,94.19678,13.00833,-4.091667,-2.183333,1
135880,0.07910156,1.458984,-0.24902339999999998,24.41406,-11.23047,-28.86963,102.3596,2.944336,85.39673,29.43333,-32.2,-2.458333,1
136190,-0.01757813,0.9360352,-0.1635742,9.216309,18.12744,26.42822,100.7831,5.026245,87.46216,14.31667,-4.625,-1.3,1
136490,0.1918945,1.0,-0.4213867,28.56445,11.1084,3.173828,101.5576,2.559814,94.76257,26.49167,-32.91667,3.35,1
136780,-0.01074219,0.9394530999999999,-0.2006836,4.699707,-28.01514,-26.18408,102.1948,-2.351074,96.75659,24.60833,-33.75,5.2,1
137060,-0.07568359,0.7626953,-0.2797852,-5.065918,-31.12793,7.385254,101.4532,1.807251,91.95557,16.95833,-4.5,-0.25,1
137310,-0.1538086,1.090332,0.06347656,1.953125,6.408691,-19.59229,102.5024,5.476685,91.33484,18.58333,-3.516667,-0.05,1
137620,0.08740234,0.809082,-0.2817383,-15.56396,3.90625,1.953125,100.2887,3.47168,87.83569,16.65,-4.95,1.108333,1
137920,0.1499023,1.040039,0.05224609,27.70996,-6.408691,31.12793,101.2775,-0.6701659999999999,92.24121,16.93333,0.6083333,-1.516667,1
138260,-0.15869139999999998,0.9438477,-0.2324219,-13.30566,-61.70654,-18.67676,100.0195,0.6756592,88.91785,13.4,-5.45,-1.975,1
138490,0.1025391,1.0,-0.09179688,2.075195,47.36328,-39.18457,98.79456,3.345337,81.8042,30.375,-33.16667,-5.0,1
138910,0.06445313,0.7407227,-0.2402344,-8.361816,29.72412,2.075195,98.23975,1.538086,85.62744,28.45,-34.16667,-2.033333,1
139150,-0.2592773,1.646484,-0.30224609999999996,15.86914,27.9541,39.00146,100.1569,1.186523,91.66443,19.325,-0.375,1.575,1
139360,-0.09814453000000001,1.001953,-0.07080078000000001,-0.6713867,6.530762,1.403809,100.9479,-4.361572,93.47717,15.24167,-3.433333,0.1833333,1
139570,-0.1376953,0.8452147999999999,-0.2607422,-11.23047,-44.43359,-8.056641,100.7007,0.14282229999999999,91.27441,14.8,-5.066667,-0.24166669999999998,1
140780,-0.01416016,0.8710937999999999,-0.1499023,6.591797,-113.7085,-3.90625,100.8875,1.763306,59.33716,15.741670000000001,-3.2,-1.091667,1
141000,-0.09326172,0.9213867,-0.265625,-0.24414059999999999,-70.92285,20.56885,99.89319,4.235229,32.07458,20.00833,-38.875,-36.425,1
141270,0.2124023,1.064453,-0.1767578,0.06103516,-15.07568,-38.51318,100.7556,4.839478,20.42908,18.90833,-0.4,0.15,1
141520,0.08789063,0.9614258,-0.24902339999999998,-7.019043,-67.93213,26.42822,98.56934,5.405273,-3.301392,0.7666666999999999,-40.95,-48.25,1
141810,0.04541016,0.9594727,-0.30126949999999997,4.516602,-3.845215,5.615234,94.93286,2.993774,-8.734131,20.41667,-1.983333,-0.025,1
142120,-0.1259766,1.034668,0.05175781,0.06103516,-37.47559,22.52197,97.64648,-0.7196045,-18.22632,-12.725,-41.025,-49.75834,1
142430,-0.07128906,0.8642578,-0.18994139999999998,-7.080078,-65.91797,-6.469727,98.95386,2.570801,-31.05286,15.35,-4.8,-0.15833329999999998,1
142660,-0.2607422,0.9526367,-0.3530273,3.234863,-29.11377,8.056641,98.32214,2.631226,-42.30286,20.14167,-2.683333,-0.2166667,1
142930,0.08642578000000001,1.041504,-0.004882813000000001,-7.629395,-43.76221,12.51221,97.50366,7.179565,-50.460210000000004,-28.8,-41.8,-42.89167,1
143250,0.0703125,0.8793945,-0.2641602,-10.68115,53.10059,-2.319336,96.20728,0.7965088,-50.82275,17.74167,-5.191667,0.008333334000000001,1
143550,0.1713867,1.095215,0.006835938000000001,9.460449,-14.5874,7.263184,99.27795,-2.416992,-46.3678,17.56667,0.4666667,-1.166667,1
143900,-0.1381836,0.7856445,-0.1533203,-13.30566,-27.03857,-12.75635,97.91016,2.241211,-50.28442,14.91667,-4.8,-0.1166667,1
144130,0.2353516,1.104492,-0.2475586,0.4882813,0.24414059999999999,-33.75244,99.26697,4.372559,-60.72693,-35.66667,-39.71667,-38.39167,1
144360,-0.08105469,1.02832,-0.05126953,-10.19287,-29.90723,-0.42724609999999996,97.45972,8.294678,-66.92871,15.69167,-2.625,0.40833329999999995,1
144610,0.08056641,0.8491211,-0.1933594,-8.056641,11.1084,6.408691,94.3396,0.8953857,-76.79993,-45.86666,-34.04167,-32.58333,1
144840,-0.1621094,1.339844,-0.04443359,-13.91602,-21.30127,31.92139,96.3501,0.03295898,-75.55298,17.75833,0.9333332999999999,1.291667,1
145120,-0.04248047,1.076172,-0.041015630000000004,12.146,-20.32471,-4.394531,98.31665,-1.104126,-78.81042,17.0,-1.875,1.416667,1
145350,-0.09326172,0.840332,-0.28662109999999996,-10.49805,-31.00586,11.53564,98.53088,5.015259,-88.27515,-47.80833,-35.13334,-19.50833,1
145610,-0.044921880000000004,1.439941,-0.23681639999999998,20.75195,-13.73291,-9.216309,97.58057,4.262695,-92.11487,16.8,-0.008333334000000001,-1.0,1
145830,-0.07275391,0.9541016,0.02294922,5.432129,-26.42822,32.04346,95.49866,6.251221,-87.92358,-47.39167,-34.5,-20.125,1
146110,0.1298828,0.8535155999999999,-0.246582,-4.211426,19.34814,0.06103516,96.43799,0.5273438,-89.14856,18.30833,-2.475,0.5666667,1
146350,-0.004394531,1.033691,-0.09033203000000001,15.13672,-2.624512,11.2915,98.60779,-1.713867,-81.55701,-49.725,-30.28333,-23.4,1
146640,-0.06542969,0.8754883,-0.22119139999999998,-19.104,12.26807,-24.71924,97.88818,0.9558105,-77.19543,-46.85,-32.13334,-26.025,1
146920,-0.1455078,1.069336,-0.2744141,22.03369,-41.50391,3.78418,97.94312,3.164063,-80.57922,17.25,-9.083333,2.633333,1
147170,-0.04296875,0.9042969,-0.0234375,-1.6479489999999999,-20.44678,-13.00049,98.33862,6.965332,-86.3855,-45.83333,-32.83333,-18.375,1
147480,0.009277344,0.8085937999999999,-0.2641602,0.0,24.78027,5.554199,99.05823,1.049194,-85.44617,18.60833,-3.425,-0.375,1
147780,0.04296875,1.001953,-0.1650391,10.68115,-18.73779,14.09912,99.52515,-1.6149900000000001,-83.23242,16.05833,1.5833329999999999,-1.766667,1
148131,-0.030273440000000002,0.918457,-0.1845703,-16.72363,-12.69531,-23.25439,98.06946,1.021729,-85.06165,14.70833,-4.533333,-3.6,1
148350,-0.1254883,1.324707,-0.37255859999999996,19.65332,1.342773,-24.4751,99.99207,3.883667,-93.27942,-48.49166,-30.0,-10.98333,1
148600,0.01171875,1.004883,-0.05615234,0.24414059999999999,-23.19336,18.31055,99.62952,6.218262,-100.9698,15.49167,-0.03333333,1.083333,1
148840,0.05908203,0.8764647999999999,-0.24853519999999998,-16.78467,57.55615,0.9765625,97.97058,0.01647949,-95.99854,-50.84167,-27.275,-9.908334,1
149080,-0.09960938,1.05127,-0.20947269999999998,11.41357,-1.342773,23.92578,99.32739,-2.296143,-87.56653,17.4,0.9583332999999999,-1.483333,1
149370,-0.07763672,0.9550780999999999,-0.16259769999999998,0.3051758,-6.896973,-27.40479,99.09119,-0.1757813,-80.05737,13.95,-3.641667,-0.7833333,1
149660,-0.24902339999999998,0.9331054999999999,-0.4462891,17.08984,-23.80371,-0.5493163999999999,98.71216,1.939087,-90.43945,-49.44167,-29.06667,-11.00833,1
149910,-0.08349609,0.9570312999999999,-0.03515625,-6.408691,-24.10889,-6.713867,100.5798,5.916138,-88.97278,14.525,-0.25,-0.2333333,1
150190,0.06445313,0.8745117,-0.2519531,-4.272461,52.00195,3.356934,98.14636,0.5218505999999999,-84.02344,-49.18333,-29.1,-17.50833,1
150450,-0.05078125,1.027832,-0.01855469,6.408691,-14.95361,30.33447,99.0802,-1.620483,-75.31128,-49.10833,-28.73333,-20.675,1
150760,-0.0034179690000000003,0.9697266,-0.05126953,2.624512,-17.08984,-17.94434,97.60803,-2.878418,-76.64063,16.19167,-2.841667,0.4166667,1
151010,-0.09228516,0.8964844,-0.19726559999999999,2.075195,-28.44238,6.9580079999999995,97.8717,2.801514,-84.36951,-47.20833,-30.86667,-14.19167,1
151280,-0.05810547,0.9423828,0.10058589999999999,-6.591797,-21.60645,-2.624512,100.0415,6.366577,-82.58972,-44.15833,-33.45,-12.866670000000001,1
151590,0.10498049999999999,0.8662109,-0.2001953,-11.90186,16.35742,11.84082,98.9978,0.9338379,-87.21497,-46.03333,-30.36667,-11.45,1
151890,0.06689453000000001,0.8999022999999999,-0.08496094,13.48877,-10.55908,13.79395,99.84924,-2.125854,-80.27161,15.56667,2.016667,-1.391667,1
152230,-0.06103516,0.9423828,-0.20556639999999998,-6.103516,-10.25391,-28.80859,98.07495,-0.8843994,-76.60217,14.675,-3.725,-0.5083333,1
152570,-0.09521484000000001,1.012207,-0.3823242,4.943848,-25.6958,0.1831055,98.88794,2.180786,-84.63318,18.99167,-1.65,0.5833332999999999,1
152800,-0.02587891,1.050781,0.02441406,-8.850098,-3.540039,7.080078,98.88794,6.075439,-83.56201,-39.15,-35.2,-14.35,1
153070,-0.006835938000000001,0.8710937999999999,-0.2568359,-8.666992,30.82275,2.197266,98.39355,-0.7196045,-75.78918,-41.45833,-33.51667,-20.21667,1
153370,0.19384769999999998,1.203125,-0.3754883,17.27295,46.32568,-1.708984,98.90442,-0.6646729,-70.21912,16.64167,-2.041667,2.45,1
153590,0.06933594,0.8637695,0.1318359,-10.0708,51.75781,-1.220703,98.90442,-2.763062,-65.59937,16.60833,-0.04166667,-0.3333333,1
153800,-0.078125,1.041992,-0.22851559999999999,-0.24414059999999999,-8.850098,-25.75684,98.53638,-1.345825,-60.5072,14.88333,-2.991667,-1.533333,1
154020,-0.1420898,1.04541,-0.3046875,2.502441,-23.13232,-3.78418,98.12439,2.9827879999999998,-69.18091,-36.46667,-36.68333,-23.2,1
154290,-0.08544922,0.9042969,0.02929688,-9.643555,-28.56445,-18.18848,97.73987,7.404785,-71.60889,-34.425,-37.56667,-21.89167,1
154560,0.06494141,0.9194336,-0.21875000000000003,-9.887695,-8.544922,33.81348,96.53687,2.807007,-76.86584,14.04167,-4.6,-0.35833329999999997,1
154840,0.06787109,1.542969,-0.2314453,13.06152,32.59277,11.47461,98.7561,0.1538086,-69.93347,17.25,1.075,2.558333,1
155110,0.03173828,0.9458008,-0.1123047,5.92041,-35.5835,-32.04346,98.90991,-0.1483154,-74.3335,-39.78333,-34.475,-20.425,1
155400,-0.04052734,1.03125,-0.2470703,-10.25391,-9.460449,2.502441,99.04175,3.092651,-82.67761,-39.89167,-34.50834,-15.80833,1
155680,-0.03857422,0.9667969,0.041015630000000004,4.577637,58.59375,-22.82715,100.3491,5.795288,-84.30908,16.99167,0.3833333,-0.2166667,1
155940,0.1279297,0.921875,-0.1948242,-2.075195,31.61621,23.49854,98.62427,2.905884,-82.2876,14.78333,-4.933333,-0.9833333999999999,1
156260,0.1806641,1.021484,-0.5341796999999999,19.28711,47.9126,-6.286621,99.17358,0.6207275,-70.08728,14.05833,3.225,1.091667,1
156550,-0.03564453,0.9375,-0.06835938,3.967285,-5.065918,-27.03857,99.2395,-2.625732,-61.6333,16.45,-4.258333,-0.49166669999999996,1
157860,0.04931641,1.000977,-0.004394531,10.13184,-15.44189,9.82666,99.26147,-0.7965088,-65.94543,17.01667,1.8,-1.566667,1
158200,-0.1923828,0.8417969,-0.25488279999999996,-2.868652,-41.38184,-15.44189,98.77258,1.203003,-71.49902,13.83333,-5.416667,-1.375,1
158410,-0.02929688,0.9868163999999999,-0.144043,-18.55469,5.187988,2.380371,98.14636,2.526855,-78.50281,17.33333,-5.591667,1.016667,1
158620,0.44287109999999996,1.53125,-0.2592773,11.84082,12.08496,-31.18896,99.97009,4.064941,-81.11755,16.83333,1.3333329999999999,0.3083333,1
158830,0.02441406,0.9853516,-0.04638672,-8.239746,-31.25,-6.225586,98.81104,7.261963,-82.44141,17.44167,-2.5,1.733333,1
159040,0.1181641,0.8442383,-0.2182617,-9.94873,32.71484,2.13623,96.93237,1.40625,-86.48438,-42.60833,-33.00834,-14.91667,1
159300,0.1499023,1.221191,-0.2587891,17.27295,45.8374,8.239746,99.245,0.7250977,-79.73328,18.18333,-0.8666667,3.458333,1
159530,0.04052734,0.9501953,-0.06542969,12.57324,-3.173828,-23.74268,98.37708,-3.032227,-75.73975,-43.60833,-32.10833,-18.78333,1
159780,-0.1293945,0.8696288999999999,-0.21337889999999998,-19.28711,-39.91699,-5.92041,97.20703,1.422729,-78.09082,16.88333,-1.9916669999999999,-0.7666666999999999,1
160050,0.28564449999999997,1.30127,-0.2075195,0.6713867,7.751465,-22.76611,97.82227,3.120117,-89.08813,-40.80833,-34.11666,-11.71667,1
160330,-0.09912109000000001,1.00293,0.011230470000000001,1.525879,-0.1831055,18.31055,97.14661,6.036987,-85.177,-39.375,-34.94167,-12.58333,1
160620,0.05126953,0.8764647999999999,-0.2119141,-11.71875,15.625,12.75635,96.87195,1.104126,-85.19348,16.48333,-4.808333,-0.2166667,1
160870,-0.375,1.384277,-0.06152344,-3.540039,-6.652832,23.80371,97.42676,-0.8953857,-77.40967,-43.0,-32.325,-16.68333,1
161130,-0.09179688,0.9409179999999999,0.03271484,-4.577637,-13.61084,20.32471,97.36084,-3.581543,-77.26685,16.925,-1.891667,2.241667,1
161380,-0.09521484000000001,0.8867187999999999,-0.3300781,-1.586914,-41.19873,5.67627,97.27844,1.203003,-85.5835,14.59167,-4.866667,1.675,1
161700,-0.2597656,1.097168,-0.03076172,5.493164,40.77148,-19.28711,99.12964,5.196533,-86.72058,15.04167,1.433333,-1.533333,1
161960,0.07666016,0.9130859,-0.1230469,-3.967285,0.12207029999999999,26.61133,98.61328,4.405518,-89.6814,-39.39167,-33.95,-9.433333,1
162310,-0.002929688,0.9472655999999999,-0.2421875,-3.051758,19.89746,-3.417969,98.39905,0.39550779999999996,-81.19446,22.4,-4.791667,0.24166669999999998,1
162510,0.2402344,1.008789,-0.02587891,19.53125,-26.79443,12.3291,98.66821,-2.307129,-78.16772,15.44167,1.933333,-1.125,1
162731,0.01660156,0.9687500000000001,-0.06835938,7.873535,-1.953125,-24.53613,97.75085,-2.763062,-75.08606,16.25833,-5.416667,-1.616667,1
162940,-0.07177734,0.9379883,-0.2011719,3.4790039999999998,-20.75195,2.868652,97.76733,1.170044,-76.52527,-40.36666,-33.55833,-18.49167,1
163170,-0.12207029999999999,1.023926,-0.16259769999999998,17.02881,12.45117,-19.104,99.68994,4.421997,-78.03589,15.225,1.716667,-1.141667,1
163450,-0.002929688,0.9726562999999999,-0.004394531,-4.272461,8.117676,15.80811,97.97058,6.344604,-79.151,17.5,-3.6,-0.075,1
163660,0.08837891,0.9086913999999999,-0.19726559999999999,-13.61084,21.91162,13.67188,98.22327,1.63147,-77.64587,15.09167,-3.608333,-0.425,1
163880,0.06201172,1.132813,-0.3300781,17.8833,63.35449,1.89209,98.86047,0.32409669999999996,-68.67554,-40.70833,-33.53333,-22.78333,1
164141,-0.11425779999999999,0.8500977,0.09570313,-11.2915,24.41406,4.821777,98.50342,-2.735596,-67.42859,15.7,-0.9916666999999999,2.291667,1
164370,-0.11279299999999999,0.8378905999999999,-0.22070309999999999,-18.31055,-35.64453,7.080078,97.5531,1.983032,-75.53101,16.00833,-1.741667,2.491667,1
164740,-0.19775389999999998,1.169922,-0.10693359999999999,9.033203,27.771,-21.66748,100.7062,6.37207,-78.24463,14.83333,1.25,-2.058333,1
164980,0.03173828,0.9492187999999999,-0.1987305,-4.333496,14.52637,25.14648,99.45923,4.581299,-79.67285,-40.3,-35.13334,-16.75833,1
165250,0.03662109,1.005859,-0.2578125,3.051758,18.98193,-3.051758,98.87695,1.543579,-74.70154,19.23333,-6.775,1.016667,1
165490,0.01318359,0.8725586,0.13916019999999998,-16.8457,29.84619,5.187988,97.98157,-2.175293,-70.82336,-43.49166,-32.70833,-22.13333,1
165810,-0.1181641,0.8002929999999999,-0.1210938,-7.995605,-38.08594,-7.263184,96.03149,2.949829,-75.87158,16.475,-3.591667,0.7416667,1
166140,0.1918945,1.36377,-0.2348633,-4.211426,24.41406,-40.2832,98.14087,5.372314,-82.57874,15.93333,1.9916669999999999,-0.425,1
166440,-0.024902340000000002,0.9541016,-0.1611328,10.62012,-12.69531,30.94482,97.30591,4.801025,-85.30334,15.63333,-2.925,-1.425,1
166780,-0.14306639999999998,1.463867,-0.1259766,10.13184,14.34326,22.2168,97.32788,-0.02197266,-79.22791,-41.09167,-33.125,-16.48333,1
167050,-0.11279299999999999,0.9858397999999999,0.060546880000000004,-4.394531,-10.62012,21.1792,97.62451,-2.741089,-80.41992,15.9,-2.316667,-0.05,1
167300,-0.1420898,0.8037109,-0.1835938,-13.24463,-50.41504,-17.51709,97.20154,2.702637,-86.79199,15.95833,-3.258333,-0.125,1
167500,0.1914063,1.34375,-0.2460938,15.38086,5.67627,-26.85547,99.01428,4.498901,-96.72363,-37.89167,-34.96667,-6.141667,1
167740,-0.041015630000000004,1.1166989999999999,-0.07714844,-5.493164,7.93457,-1.098633,99.38232,7.844238,-94.37256000000001,16.74167,-3.6,0.55,1
168000,0.009765625,0.8476562999999999,-0.25537109999999996,6.164551,30.2124,-4.333496,98.90991,2.246704,-92.85645,18.83333,-5.883333,-0.31666669999999997,1
168310,0.05859375,0.9614258,0.01171875,-9.033203,5.371094,7.263184,100.1459,-1.752319,-91.63696,-42.73333,-31.54167,-7.608333,1
168600,-0.07714844,0.8540038999999999,-0.20214839999999998,-18.24951,-8.056641,-24.35303,98.24524,1.7028809999999999,-92.19177,14.31667,-4.95,-1.541667,1
168930,-0.06982422,1.417969,-0.16650389999999998,25.81787,-30.33447,-19.77539,98.62427,4.586792,-97.94861,16.59167,1.9583329999999999,-0.5,1
169210,-0.06787109,0.8979492,-0.137207,6.408691,6.713867,37.53662,97.56958,5.542603,-94.36157,-37.35833,-33.36666,-6.483333,1
169480,0.06542969,0.8178711,-0.24121089999999998,0.7324219,30.57861,-0.4882813,98.30017,0.9613037,-91.47766,18.58333,-5.583333,0.7416667,1
169740,0.007324219000000001,1.106934,-0.01367188,-12.146,41.74805,11.90186,99.78333,-2.883911,-83.88611,14.60833,1.05,-1.383333,1
170020,-0.1918945,0.9086913999999999,-0.2124023,-19.47021,-13.00049,-19.83643,97.97058,-0.28564449999999997,-76.8219,14.5,-4.225,-0.6416666999999999,1
170360,0.024902340000000002,1.367676,-0.26220699999999997,26.79443,-2.990723,-28.74756,99.0802,3.251953,-85.4187,18.025,-0.5916667,0.3916667,1
170650,-0.03662109,0.9916992,-0.06835938,-5.92041,-8.605957,31.06689,97.4707,5.300903,-82.66663,15.84167,-3.333333,-1.425,1
170980,0.04541016,1.004883,-0.27001949999999997,-7.324219,40.52734,-5.981445,97.5531,0.07141113,-75.05859,18.94167,-6.258333,2.0,1
171300,-0.007324219000000001,0.8852538999999999,0.1606445,-7.263184,16.6626,1.953125,97.64099,-2.186279,-70.0708,15.425,-0.3083333,0.75,1
171520,-0.07275391,0.9262695,-0.27832029999999996,-9.155273,-50.96436,-16.35742,97.57507,0.802002,-74.87732,14.16667,-3.091667,-0.4166667,1
171740,-0.315918,1.10791,-0.3828125,14.28223,-20.81299,-8.178711,98.49243,3.466187,-79.98596,-43.05833,-34.975,-16.99167,1
171970,-0.01318359,0.9418945,0.06347656,-9.765625,-6.469727,-5.493164,99.28345,6.333618,-78.53577,16.40833,-0.2583333,-1.5,1
172210,0.1015625,0.8637695,-0.1630859,-9.033203,16.90674,20.81299,97.4707,1.087646,-76.54724,-49.29167,-33.41667,-21.13333,1
172450,0.04980469,1.1166989999999999,-0.3989258,5.92041,23.4375,0.5493163999999999,98.39355,0.1153564,-69.71375,21.26667,-3.291667,-1.783333,1
172740,-0.06201172,0.9716796999999999,0.02929688,-2.746582,22.15576,7.080078,98.77808,-4.63623,-59.95239,-50.09167,-32.175,-29.35,1
173010,-0.07617188,0.8193359,-0.19726559999999999,3.234863,-56.51855,5.981445,97.38831,2.04895,-66.46179,-50.04167,-34.475,-23.9,1
173310,0.11669919999999999,1.290527,-0.2744141,9.643555,-6.103516,-21.66748,99.53064,3.57605,-74.03687,18.35833,1.116667,0.6583333,1
174530,-0.12744139999999998,0.859375,-0.25,-5.432129,-46.14258,12.20703,97.76733,2.790527,-76.42639,16.7,-3.516667,0.5083333,1
174760,-0.08154297,1.4135739999999999,-0.24072269999999998,21.91162,-55.48096,-4.333496,99.7229,3.301392,-82.27112,18.425,0.725,0.8166667,1
175000,-0.07470703000000001,0.8979492,-0.01953125,6.103516,-8.422852,29.78516,98.82751,5.773315,-82.99622,15.625,-4.041667,-2.233333,1
175230,-0.01953125,0.9594727,-0.1958008,7.873535,52.12402,-10.19287,98.62976,-0.09887695,-73.55347,-40.85833,-32.625,-12.70833,1
175540,0.01660156,0.9980469,-0.09521484000000001,7.141113,-17.94434,29.23584,100.2173,-2.318115,-69.54895,15.96667,2.25,-0.025,1
175790,-0.02978516,0.9472655999999999,-0.2587891,-3.723145,-4.089355,-27.16064,100.816,0.07141113,-63.58337,-35.71667,-32.76667,-19.6,1
176070,-0.3134766,1.022949,-0.4291992,3.540039,-45.95947,-3.173828,98.77808,3.427734,-69.99939,18.93333,-0.6083333,-0.8916666,1
176410,-0.01904297,1.044434,0.05029297,-9.216309,-1.464844,15.68604,98.5199,6.756592,-71.79016,18.71667,-5.091667,2.6,1
176710,-0.00390625,0.9589844,-0.32519529999999996,-4.516602,42.90771,-8.789063,100.1569,0.7855225,-65.96191,18.15,-6.941667,0.875,1
176940,-0.18164059999999999,1.020996,-0.1157227,-10.55908,-4.821777,34.17969,99.74487,-1.4556879999999999,-61.96289,16.10833,1.066667,-1.191667,1
177160,0.041015630000000004,1.077637,-0.02734375,1.525879,0.12207029999999999,2.990723,98.71216,-3.273926,-59.85901,16.925,-3.575,0.8166667,1
177370,-0.07226563,0.9018554999999999,-0.17822269999999998,1.708984,-33.14209,2.258301,98.20129,2.06543,-64.81934,-45.90833,-30.45,-23.60833,1
177640,-0.10107419999999999,1.020996,0.08496094,9.399414,21.05713,-29.05273,101.0962,6.641235,-66.11572,14.3,1.683333,0.2083333,1
177860,-0.028808590000000002,0.9838867,-0.2431641,3.601074,10.74219,34.30176,100.2557,4.883423,-69.91699,-47.65,-31.43333,-18.90833,1
178100,-0.02685547,0.9682617,-0.2192383,-4.272461,39.24561,-8.789063,100.1569,1.571045,-64.97864,19.375,-7.966667,1.641667,1
178380,0.04931641,0.8964844,0.1611328,-0.5493163999999999,33.02002,5.7983400000000005,100.1184,-3.493652,-61.22681,-50.95833,-30.68333,-24.8,1
178670,-0.1196289,0.8027344,-0.20947269999999998,-5.7983400000000005,-30.45654,1.708984,99.50867,1.521606,-61.9519,-49.36666,-34.98333,-22.45,1
178950,-0.25439449999999997,1.007324,-0.5063477,6.286621,-37.8418,-9.765625,100.0305,2.883911,-66.63208,17.95833,-0.2,0.5,1
179200,-0.08056641,0.9365234,0.04150391,-0.7324219,-7.93457,26.30615,97.6355,6.998291,-65.96741,-49.94167,-40.3,-16.34167,1
179460,-0.09228516,0.996582,-0.22998049999999998,-11.77979,41.62598,-9.277344,98.28918,0.8239746,-58.09021,-50.21667,-38.23333,-21.15833,1
179770,-0.5834961,1.32666,0.1259766,-19.83643,12.45117,38.81836,99.49219,-0.8953857,-53.33862,16.38333,1.158333,0.1666667,1
180010,-0.1318359,1.010254,-0.2236328,1.159668,-55.9082,-27.64893,99.60754,0.7470703,-59.11743,-44.275,-37.96667,-15.45833,1
180290,-0.020996090000000002,1.01123,-0.2509766,0.0,-50.90332,14.64844,99.06921,3.515625,-71.5979,16.75833,-7.216667,2.475,1
180580,-0.09814453000000001,0.9453125,0.1416016,-3.4790039999999998,17.76123,-18.79883,101.3324,6.646729,-72.62512,16.68333,0.2083333,-3.216667,1
180880,-0.01171875,0.8876953,-0.2885742,-3.4790039999999998,48.76709,-17.02881,100.1074,0.6701659999999999,-59.40308,-40.66667,-37.06667,-18.93333,1
181130,-0.05957031,1.2158200000000001,-0.2841797,5.92041,83.74023,-1.037598,100.426,0.3790283,-54.50317,17.21667,1.425,0.9166667,1
181390,-0.06640625,0.9086913999999999,0.048828130000000004,-8.483887,37.10938,6.286621,99.45923,-2.763062,-50.36133,15.48333,-1.141667,1.5,1
181610,-0.16650389999999998,0.8828125,-0.1992188,-19.89746,-44.55566,-14.03809,99.25598,1.021729,-52.50916,14.575,-7.466667,-1.033333,1
181810,-0.2749023,1.003906,-0.48291019999999996,19.65332,-57.49512,-2.502441,98.1189,3.466187,-66.91223,-38.51667,-38.28333,-16.79167,1
182080,0.09863281,0.9301758,0.07470703000000001,2.685547,27.28271,27.9541,98.30566,5.872192,-65.20386,-37.26667,-39.11666,-18.20833,1
182330,-0.01171875,0.8496094,-0.2636719,-8.972168,39.85596,-1.464844,99.82727,0.9118651999999999,-58.39783,16.925,-3.475,-1.191667,1
182620,-0.2158203,0.9082030999999999,0.07568359,-8.056641,-4.760742,40.58838,100.1843,-2.230225,-48.98804,-39.025,-36.85,-27.075,1
182910,-0.08740234,1.005859,-0.19384769999999998,-1.342773,-17.02881,-26.97754,100.9149,-0.5548096,-48.46619,14.54167,-5.65,-0.2333333,1
183230,-0.1567383,0.9150391,-0.38085939999999996,6.713867,-23.31543,-3.540039,99.61304,2.39502,-56.79932,-37.93333,-38.76667,-22.75833,1
183520,0.2578125,0.9941405999999999,-0.08007813,0.42724609999999996,13.06152,17.02881,100.9149,4.597778,-54.06372,15.25,-4.641667,0.8,1
183820,-0.1113281,1.052246,-0.2919922,1.403809,10.37598,-6.347656,102.5629,0.5438232,-43.81897,-34.70833,-39.66667,-28.49167,1
184140,0.1499023,1.187012,0.46728519999999996,-48.64502,-27.9541,2.563477,96.72913,-2.999268,-40.39124,14.61667,-0.7083332999999999,-0.5666667,1
184460,-0.08203125,0.8920897999999999,0.04150391,20.32471,-19.104,-6.713867,94.16382,0.3131104,-45.88989,17.50833,-4.091667,0.0,1
184720,-0.09130859,0.9042969,-0.18945309999999999,-13.97705,-24.4751,10.68115,94.39453,3.032227,-49.998780000000004,16.60833,-3.608333,2.633333,1
185020,-0.03564453,0.9902344,-0.01464844,-3.356934,6.835938,8.422852,97.56958,6.59729,-49.59778,-33.275,-40.56667,-29.175,1
185310,-0.11083979999999999,0.9907227,-0.2436523,-9.70459,16.60156,-1.7700200000000001,100.1459,1.867676,-42.72583,-33.80833,-39.18333,-31.84167,1
185550,-0.44335939999999996,1.279297,-0.03759766,-10.31494,2.624512,34.66797,100.86,0.604248,-37.89734,17.275,0.225,0.5,1
185840,-0.04638672,1.004883,-0.1992188,0.24414059999999999,-30.63965,-13.73291,101.1786,-0.32409669999999996,-40.59448,-34.925,-39.01667,-30.89167,1
186071,-0.005859375,0.8583984,-0.2026367,-10.25391,-57.06787,15.19775,98.92639,1.516113,-51.74561,14.825,-4.716667,0.1916667,1
186320,-0.546875,1.087891,0.1259766,8.422852,64.51416,-22.27783,99.3988,4.680176,-50.57007,-35.70833,-39.91667,-27.60833,1
186560,-0.07324219,0.9169921999999999,-0.04785156,22.33887,-0.7324219,32.40967,98.92639,4.476929,-53.67371,15.15833,-2.666667,0.0,1
186840,-0.017089840000000002,1.009766,-0.18945309999999999,-13.97705,28.32031,-7.141113,99.78333,-0.2252197,-44.56055,-35.95833,-38.4,-31.93333,1
187140,0.08056641,0.8989258,0.12255859999999999,-4.02832,55.7251,10.68115,100.0909,-2.817993,-34.80469,17.4,-2.608333,1.125,1
187450,-0.056640630000000004,0.7739258,-0.2241211,-18.31055,-31.98242,-15.31982,97.42126,0.8349609,-31.44836,15.53333,-3.133333,1.5833329999999999,1
187771,0.45019529999999996,1.443359,0.004882813000000001,-20.20264,37.41455,-43.02979,99.10767,4.575806,-38.63342,17.26667,2.0,0.01666667,1
188060,-0.02294922,0.9580078,-0.1435547,16.29639,-9.399414,36.68213,98.45398,4.048462,-38.7323,-32.45,-40.35833,-33.125,1
188350,0.022460940000000002,0.9887695,-0.38769529999999996,-2.502441,9.521484,-1.159668,99.95361,0.5163574,-31.94275,-30.58333,-40.15,-35.525,1
188620,0.1958008,0.9648437999999999,0.18261719999999998,-2.563477,35.21729,-0.12207029999999999,100.4865,-3.268433,-29.66309,18.53333,-0.8,-0.008333334000000001,1
188870,-0.09521484000000001,0.8300780999999999,-0.1948242,-15.38086,-19.83643,-16.54053,99.3988,0.7745361,-28.82813,-29.73333,-40.24166,-35.58333,1
189200,0.2895508,1.396484,-0.09765625,-22.64404,28.50342,-33.38623,100.7281,3.773804,-34.80469,16.75,3.308333,-0.8333332999999999,1
189480,-0.08496094,0.9541016,-0.152832,27.9541,-6.652832,33.87451,100.3326,3.900146,-33.76099,13.91667,-2.975,-0.6583333,1
189790,0.1210938,1.004395,-0.3901367,-1.281738,6.286621,2.380371,101.1017,0.6536865,-28.66333,16.125,-0.25,1.783333,1
190150,0.011230470000000001,1.032227,-0.20605469999999998,-1.098633,0.0,-25.93994,101.0632,-2.301636,-22.67578,-27.15,-40.35,-35.69167,1
190420,-0.02832031,0.9086913999999999,-0.2006836,-0.793457,-27.52686,6.896973,99.44824,1.010742,-27.86133,17.23333,-5.241667,0.3333333,1
191650,-0.01220703,1.033691,-0.206543,2.990723,-16.47949,-26.36719,100.6787,-1.977539,-14.34814,13.41667,-3.675,-1.133333,1
191850,-0.06445313,0.9101562999999999,-0.1835938,-3.356934,-29.05273,11.59668,99.62402,1.186523,-20.4071,16.73333,-6.475,1.591667,1
192060,-0.1845703,0.9687500000000001,0.15039059999999999,-0.24414059999999999,2.990723,-8.239746,101.9312,4.603271,-21.11572,-20.58333,-42.91667,-34.09167,1
192320,-0.06201172,1.002441,-0.1201172,12.69531,23.80371,25.08545,100.9644,3.7133789999999998,-20.91797,14.625,-4.45,-1.208333,1
192560,-0.02294922,0.8608397999999999,-0.29345699999999997,-4.516602,45.89844,-12.51221,100.9698,0.4119873,-14.23279,16.1,-5.008333,-0.6583333,1
192770,0.18164059999999999,0.9941405999999999,0.03564453,5.981445,13.18359,4.455566,101.7059,-3.120117,-10.10193,-19.61667,-42.04167,-37.175,1
193020,-0.006347656,1.009277,-0.17871089999999998,10.80322,-11.47461,-28.62549,100.7831,-3.345337,-7.503662,14.56667,-2.091667,-1.95,1
193300,-0.09179688,0.9877929999999999,-0.2163086,-4.516602,-59.021,12.57324,98.62427,0.2362061,-18.43506,-23.2,-40.83333,-36.875,1
193630,-0.08935547,1.047852,-0.1098633,1.6479489999999999,-68.48145,-6.286621,102.3761,4.680176,-30.14648,15.20833,-1.183333,0.06666667,1
193900,0.015136720000000001,0.9101562999999999,-0.2319336,-1.89209,46.14258,8.972168,100.4315,1.686401,-34.12903,-27.24167,-41.73333,-32.65,1
194200,-0.23339839999999998,1.353027,-0.1323242,13.48877,47.24121,13.61084,100.7611,-1.582031,-20.59387,18.375,0.5750000000000001,1.175,1
194510,-0.056640630000000004,0.9428711,-0.1489258,-8.361816,11.90186,-24.6582,100.3436,-2.142334,-11.23352,-18.2,-42.7,-37.71667,1
194840,-0.09130859,0.9575195,-0.2006836,-2.380371,-5.432129,-2.13623,96.92688,1.6149900000000001,-17.25952,26.21667,0.025,3.575,1
195120,0.002929688,1.048828,-0.01611328,-3.4790039999999998,1.8310549999999999,-11.77979,99.58557,4.608765,-17.1167,15.73333,-2.641667,2.583333,1
195460,-0.01806641,0.8134766,-0.2587891,11.1084,48.46191,-11.47461,101.25,-0.9283446999999999,-10.58533,18.16667,-6.183333,-1.5833329999999999,1
195700,0.1489258,0.9775391,0.028808590000000002,6.530762,23.13232,6.103516,102.5024,-3.933105,-5.092163,-15.50833,-44.50834,-36.83333,1
195940,0.004882813000000001,1.016113,-0.190918,0.12207029999999999,16.23535,-31.00586,101.2775,-4.064941,-0.1757813,14.39167,-2.841667,-2.891667,1
196170,-0.105957,0.8012695,-0.24902339999999998,-8.666992,-33.20313,2.319336,98.72314,0.1538086,-1.620483,18.20833,-4.191667,-0.35000000000000003,1
196390,-0.1601563,0.9584961,0.1171875,1.464844,2.441406,-3.845215,100.871,3.235474,-4.163818,-9.95,-44.75834,-38.21667,1
196650,-0.09228516,0.9960937999999999,-0.15869139999999998,13.91602,-1.220703,24.96338,100.0964,4.334106,-5.147095,15.36667,-3.608333,-0.8,1
196910,-0.04052734,0.8823242,-0.34082029999999996,-0.12207029999999999,36.43799,-1.342773,100.5084,-0.32409669999999996,-0.6866455,15.01667,-3.141667,-1.6,1
197140,0.11083979999999999,1.050293,-0.1767578,18.37158,9.70459,2.624512,100.8435,-3.328857,4.438477,16.26667,1.775,-1.625,1
197400,0.004882813000000001,0.9921875,-0.20507809999999999,-12.26807,0.1831055,-28.86963,99.06921,-2.658691,9.030762,-6.108333,-44.61666,-39.05833,1
197680,-0.04003906,0.890625,-0.15869139999999998,-0.793457,-30.82275,3.234863,98.70667,0.37353519999999996,4.284668,17.86667,-6.516667,1.758333,1
197910,-0.1171875,0.9511719,0.05859375,-10.19287,-1.403809,-13.48877,101.7169,4.696655,2.526855,-4.316667,-45.15833,-37.79167,1
198220,-0.03613281,0.9350586,-0.2695313,-1.464844,57.55615,18.00537,101.4203,0.5273438,7.547607,-4.008333,-45.6,-36.99166,1
198491,0.05126953,1.012207,-0.24902339999999998,-5.310059,14.46533,9.094238,99.45374,-2.263184,13.04626,25.23333,-1.516667,-0.30000000000000004,1
198740,-0.08007813,0.8632812999999999,0.11425779999999999,-4.638672,18.67676,8.483887,98.62976,-3.702393,14.4635,-3.641667,-44.95,-38.13334,1
199030,-0.1337891,0.8295897999999999,-0.18603519999999998,-8.117676,-18.67676,-3.112793,97.63,1.63147,14.7052,-0.17500000000000002,-43.075,-40.28333,1
199350,0.10107419999999999,1.12207,-0.1152344,16.54053,7.507324,-29.41895,100.3821,4.570313,7.042236,15.44167,3.008333,0.9333332999999999,1
199660,-0.04296875,0.9682617,-0.1762695,13.00049,2.624512,24.53613,101.2555,3.795776,7.250977,14.575,-2.991667,-1.9000000000000001,1
200040,-0.14257809999999999,1.348145,-0.2714844,5.67627,34.66797,15.74707,102.0135,-1.164551,17.11121,17.0,-0.5916667,1.65,1
200320,-0.09326172,0.9628905999999999,0.0625,-4.699707,28.07617,8.850098,101.8762,-4.32312,19.86877,17.18333,-2.758333,1.925,1
200530,-0.08642578000000001,0.8427734,-0.2280273,-1.89209,-49.62158,5.004883,100.5469,0.6317138999999999,13.78784,-0.8,-45.76667,-37.45,1
200770,-0.22949219999999998,0.9555663999999999,-0.4179688,12.63428,-32.77588,-2.319336,100.9808,1.483154,8.4375,19.675,-2.833333,2.441667,1
201010,-0.008300781,0.9877929999999999,0.001953125,4.150391,-22.64404,-5.187988,103.0298,4.812012,7.89917,16.725,-1.875,-2.2,1
201230,-0.002929688,0.9121094,-0.1333008,-5.554199,40.2832,16.96777,100.5798,0.637207,10.93689,-1.083333,-45.825,-37.28333,1
201480,-0.0004882813,0.9418945,-0.1645508,-11.90186,18.79883,-2.685547,98.98682,-0.5822754,17.33643,18.3,-6.766667,1.725,1
201760,-0.01025391,0.8701171999999999,0.13134769999999998,-8.728026999999999,28.19824,2.563477,99.35486,-3.306885,20.31921,0.24166669999999998,-45.925,-36.78333,1
202020,-0.07177734,0.8369141,-0.20947269999999998,-13.12256,-47.66846,-7.568359,99.76685,0.4614258,14.56787,0.01666667,-45.475,-37.51667,1
202340,-0.1845703,0.9086913999999999,-0.3046875,19.53125,-15.74707,-5.310059,99.3988,0.6866455,8.388062,19.975,-5.941667,1.116667,1
202570,-0.02050781,0.9135742,-0.01855469,-15.25879,7.080078,-4.516602,100.3656,5.031738,12.52441,2.4,-44.30833,-37.325,1
202860,0.008300781,0.8041992,-0.2763672,-9.277344,35.88867,-4.272461,99.83826,0.6811522999999999,11.72791,17.9,-3.8083329999999997,-2.2,1
203170,-0.002441406,1.029297,-0.05859375,15.50293,-18.79883,23.80371,99.51965,-2.070923,17.63306,-0.5,-44.1,-36.71667,1
203440,-0.01953125,1.047852,-0.22167969999999998,8.300781,-32.59277,-18.61572,101.0522,-1.7303469999999999,17.45728,-0.2,-43.80833,-36.0,1
203800,-0.15625,1.014648,-0.28662109999999996,-7.019043,-1.708984,-5.004883,99.82727,1.021729,9.717407,22.95833,-3.65,0.2833333,1
204100,-0.002441406,0.9492187999999999,0.05078125,-5.187988,-25.5127,-10.55908,100.2118,5.229492,6.855469,16.5,-1.65,1.416667,1
204401,0.05029297,0.8549804999999999,-0.2431641,-2.624512,37.59766,2.624512,99.18457,-0.2362061,7.399292,17.34167,-3.433333,-1.066667,1
204730,-0.1855469,1.000488,-0.11621089999999999,4.272461,-13.73291,31.43311,98.94287,-2.883911,15.81482,15.63333,0.6583333,0.5916667,1
204940,-0.06494141,0.9916992,0.01660156,-2.807617,-3.4790039999999998,8.972168,99.23401,-5.350342,18.29773,17.4,-3.791667,0.17500000000000002,1
205150,-0.15625,0.7841796999999999,-0.11669919999999999,-9.399414,-26.42822,-21.24023,98.82202,-0.8074950999999999,16.61682,15.08333,-4.591667,-0.1916667,1
205360,-0.09521484000000001,1.016113,-0.2900391,1.586914,-10.92529,-7.019043,99.72839,0.07141113,11.79382,23.81667,-2.391667,0.7083332999999999,1
205580,0.03613281,0.9370117,-0.04638672,-9.155273,-1.098633,-12.63428,99.94263,5.822754,10.15686,0.85,-37.75834,-37.41667,1
205830,0.07421875,0.8935546999999999,-0.2036133,-14.64844,24.6582,25.57373,98.73962,1.994019,10.77209,14.0,-4.866667,-0.6166667,1
206080,0.2744141,1.191406,-0.35791019999999996,27.64893,28.56445,3.112793,99.89319,-0.7690429999999999,18.29224,16.54167,-0.5833332999999999,3.05,1
206380,0.02197266,1.004395,-0.04394531,3.78418,-10.92529,-12.81738,98.96484,-4.735107,19.67102,1.016667,-40.71667,-35.075,1
206670,-0.0390625,0.949707,-0.21777339999999998,4.821777,-25.93994,7.385254,98.92639,0.44494629999999996,13.06824,1.5833329999999999,-39.86666,-37.29167,1
206960,0.2524414,1.291016,-0.1323242,10.55908,-9.033203,-26.48926,100.2667,2.48291,8.173828,17.40833,1.591667,0.05833333,1
207200,-0.05175781,1.013184,-0.1518555,16.05225,12.69531,26.24512,99.68994,4.658203,8.349609,3.916667,-40.375,-36.76667,1
208480,-0.0546875,0.9697266,0.1279297,-0.1831055,-4.577637,-10.43701,100.6458,4.844971,9.827271,6.491667,-44.35,-38.98333,1
208820,0.06152344,0.9223633,-0.24511719999999998,-6.347656,24.41406,13.24463,100.6622,1.6479489999999999,10.53589,4.925,-45.78333,-38.06667,1
209080,-0.24121089999999998,1.3935549999999999,-0.203125,-5.187988,24.29199,22.15576,100.2722,-0.6207275,19.29199,16.825,0.5083333,0.36666669999999996,1
209430,-0.04394531,0.9741211,-0.1171875,13.06152,-17.7002,-27.89307,99.26697,-3.191528,18.68774,15.625,-4.4,-2.116667,1
209720,-0.06347656,1.003906,-0.2509766,-4.211426,-15.19775,6.713867,98.47595,1.669922,9.063721,2.858333,-45.9,-40.84167,1
210050,-0.11279299999999999,1.038086,0.09423828000000001,2.990723,-6.9580079999999995,-7.507324,100.5414,5.119629,5.515137,17.1,-1.683333,-1.133333,1
210270,-0.03857422,0.871582,-0.2246094,-1.464844,23.98682,24.96338,99.97009,0.9613037,7.7398679999999995,1.675,-47.35833,-38.45,1
210510,0.03369141,1.029785,-0.2998047,-5.004883,23.4375,-2.380371,100.448,-0.37353519999999996,12.37061,22.775,-3.7,0.008333334000000001,1
210780,0.2319336,1.030762,0.041015630000000004,12.51221,-1.281738,10.98633,100.8929,-3.389282,14.33167,15.64167,1.433333,-1.033333,1
211000,0.01074219,0.9467772999999999,-0.07226563,22.58301,-7.324219,-24.41406,100.2997,-3.834229,16.99036,16.78333,-6.041667,-1.133333,1
211210,-0.05371094,0.934082,-0.22119139999999998,-14.89258,-0.3051758,0.12207029999999999,99.37683,0.2416992,11.11816,2.725,-47.36666,-38.76667,1
211450,0.152832,1.286133,-0.1401367,-2.807617,-25.02441,-12.51221,99.05823,1.96106,6.740112,18.56667,-1.241667,1.125,1
211700,-0.10693359999999999,1.042969,-0.06396484,8.361816,15.625,10.37598,98.46497,5.350342,9.398804,5.575,-46.1,-39.09167,1
211950,0.07421875,0.8891602,-0.19384769999999998,-8.911133,25.14648,10.43701,98.78357,-0.2911377,11.96411,14.975,-4.625,-1.716667,1
212230,0.01757813,1.223145,-0.2592773,10.68115,45.47119,3.234863,98.7561,-1.241455,21.868290000000002,5.966667,-47.35,-36.53333,1
212520,0.04003906,1.011719,-0.1435547,11.04736,-36.01074,-31.79932,98.9978,-2.576294,20.4126,14.39167,-3.1,-1.891667,1
212860,-0.08349609,0.9755859,-0.2265625,-5.126953,-19.04297,8.422852,98.75061,1.378784,9.591064,19.44167,-6.583333,2.733333,1
213160,0.0,0.8969727,0.09130859,-13.97705,-33.87451,-18.18848,99.59656,6.322632,3.944092,16.93333,0.6416666999999999,1.625,1
213430,0.02929688,0.9301758,-0.3432617,-9.94873,44.55566,9.460449,101.2006,-0.04943848,9.299927,2.883333,-47.79167,-37.91667,1
213730,-0.3125,1.428223,-0.09277344,-1.8310549999999999,17.82227,22.3999,100.415,-1.565552,18.70422,4.241667,-48.05833,-36.88334,1
214010,-0.02929688,0.8930663999999999,0.07470703000000001,-0.06103516,-18.85986,8.483887,98.89893000000001,-4.020996,17.33643,16.93333,-3.366667,3.358333,1
214260,-0.03417969,0.8193359,-0.2080078,-13.97705,-32.71484,4.943848,99.22302,0.7965088,10.92041,17.20833,-4.458333,0.1166667,1
214600,-0.1113281,0.9755859,-0.02392578,4.943848,12.75635,-14.4043,100.437,4.125366,4.21875,15.725,0.9,0.5916667,1
214810,-0.1074219,1.026855,-0.04150391,1.6479489999999999,11.84082,25.93994,100.047,5.548096,3.109131,16.30833,-3.041667,-0.15,1
215021,0.017089840000000002,0.8920897999999999,-0.230957,-3.356934,40.22217,11.35254,100.0854,0.09887695,6.773071,16.31667,-4.6,-1.541667,1
215230,0.02734375,1.087891,-0.4321289,2.197266,10.98633,3.112793,99.7998,-0.7141113,12.20581,18.025,-3.425,-0.1166667,1
215440,-0.03173828,0.965332,0.02685547,-4.02832,-15.50293,5.737305,98.15186,-4.191284,13.86475,1.125,-47.96667,-39.125,1
215690,-0.10693359999999999,0.8925780999999999,-0.23730469999999998,-3.112793,-40.2832,-5.981445,98.09143,-0.1263428,9.025269,14.65,-3.175,-0.2583333,1
215940,0.1201172,1.027344,-0.2915039,3.967285,12.81738,-31.73828,99.36584,2.290649,-3.334351,17.75833,-0.925,0.325,1
216240,0.02001953,0.9555663999999999,-0.11279299999999999,8.117676,-3.356934,21.66748,98.54187,3.641968,-1.153564,-1.541667,-47.325,-42.075,1
216530,0.048828130000000004,0.9492187999999999,-0.34033199999999997,-1.708984,42.72461,1.037598,98.12988,-0.2911377,3.153076,15.94167,-4.05,-0.36666669999999996,1
216760,0.137207,0.9912109,-0.1572266,9.765625,21.42334,-5.554199,98.50342,-2.757568,10.23376,14.60833,1.775,-0.7000000000000001,1
217060,-0.015136720000000001,1.052734,-0.1835938,7.8125,2.258301,-34.79004,98.49243,-2.131348,13.43628,14.95,-3.916667,-2.125,1
217310,0.006347656,0.9389647999999999,-0.2890625,23.86475,-1.708984,-4.882813,98.0365,1.642456,8.12439,18.975,-2.025,-0.36666669999999996,1
217590,-0.06689453000000001,1.085938,-0.05908203,4.516602,-8.422852,7.751465,101.5631,6.773071,5.41626,17.375,-4.858333,1.608333,1
217890,0.06298828000000001,0.8911133,-0.1992188,-6.164551,18.73779,-3.540039,100.1514,1.109619,4.828491,18.59167,-5.45,2.741667,1
218190,-0.06689453000000001,0.9541016,0.1020508,-13.3667,30.94482,4.272461,99.84375,-2.059937,8.585815,18.425,-1.916667,1.558333,1
218490,-0.1054688,0.8466796999999999,-0.1845703,-5.67627,-15.99121,-0.793457,99.28345,2.301636,6.300659,16.9,-3.833333,-0.9583332999999999,1
218830,-0.08203125,1.039551,-0.2338867,12.87842,23.01025,-31.49414,100.47,4.691162,3.345337,15.54167,2.141667,-0.375,1
219040,-0.09863281,1.056152,-0.1015625,1.953125,-5.126953,7.751465,100.1733,5.982056,2.301636,16.25833,-3.425,0.65,1
219250,0.03271484,0.8769530999999999,-0.23339839999999998,-4.211426,26.00098,17.57813,100.3876,0.6152344,2.559814,14.81667,-4.725,0.2333333,1
219460,0.08251953000000001,1.010742,-0.4365234,2.990723,19.9585,-3.051758,100.8929,0.27465819999999996,9.387817,16.64167,-2.883333,-0.9833333999999999,1
219680,-0.01171875,1.003906,-0.02978516,7.202148,-11.41357,-4.272461,100.3217,-3.356323,11.78284,-0.8,-47.51667,-40.36666,1
219910,-0.07714844,0.8789062999999999,-0.2680664,-9.460449,-27.09961,-9.58252,100.3656,0.7415771,9.585571,15.81667,-3.566667,0.35833329999999997,1
220161,0.20214839999999998,1.237793,-0.2832031,7.263184,12.81738,-35.5835,102.8925,4.224243,2.730103,-1.608333,-47.26667,-41.4,1
220420,0.020996090000000002,0.9921875,-0.08984375,-5.126953,-3.356934,-1.708984,103.1781,6.915894,1.450195,17.25833,-4.258333,2.658333,1
220690,0.024902340000000002,0.7890625,-0.2910156,-5.67627,38.0249,-5.859375,102.3212,0.9118651999999999,-0.7086182,-7.983333,-47.85833,-41.25834,1
220980,0.125,1.023926,-0.08007813,8.239746,11.04736,5.67627,103.5516,-2.296143,5.103149,16.23333,0.1666667,-1.0,1
221290,-0.1118164,0.8828125,-0.24511719999999998,-11.77979,-16.11328,-17.15088,102.2772,0.401001,5.943604,-6.116667,-47.71667,-39.10833,1
221590,-0.24072269999999998,1.2470700000000001,-0.3388672,22.27783,-37.65869,-11.1084,102.3706,2.532349,1.653442,18.25833,-1.3333329999999999,1.191667,1
221900,-0.078125,0.9838867,-0.11621089999999999,6.652832,13.12256,19.77539,102.052,5.9545900000000005,0.5493163999999999,-7.175,-46.65833,-36.825,1
222190,0.01367188,0.9755859,-0.2382813,-22.03369,33.63037,-2.868652,100.2722,0.44494629999999996,5.059204,-7.841667,-44.06667,-38.25834,1
222480,0.1875,1.015137,0.004882813000000001,4.882813,13.18359,7.324219,101.2335,-2.850952,8.481445,-7.4,-43.74166,-35.10833,1
222790,-0.13916019999999998,0.8774413999999999,-0.20996089999999998,-20.44678,-42.3584,-11.16943,100.7721,-0.1538086,4.822998,-6.766667,-42.825,-34.325,1
223090,-0.09130859,1.277832,-0.1992188,-4.882813,-38.45215,-10.0708,101.9037,1.801758,-3.03772,-6.383333,-41.15833,-32.875,1
223430,-0.01025391,1.013184,-0.09082031,-6.713867,27.40479,8.911133,100.3162,5.949097,-0.6921387,17.025,-2.966667,-1.6,1
223700,-0.004394531,0.8901367,-0.2431641,-7.263184,35.82764,13.79395,99.75037,0.9283446999999999,5.575562,14.79167,-4.5,-0.9500000000000001,1
223910,-0.15136719999999998,1.339844,-0.21289059999999999,3.967285,19.47021,15.86914,99.95911,-0.8734130999999999,12.6123,2.766667,-40.98333,-33.48333,1
224140,-0.07080078000000001,0.9223633,0.1191406,-8.850098,0.9155272999999999,12.02393,99.28894,-3.284912,11.51917,16.90833,-1.508333,1.7083329999999999,1
225370,-0.011230470000000001,1.007324,-0.24951169999999998,1.525879,19.28711,-0.6713867,98.79456,0.03295898,5.328369,21.56667,-4.358333,1.508333,1
225590,0.10839839999999999,1.075195,-0.005859375,8.850098,10.00977,10.86426,99.81079,-2.658691,7.476196,15.91667,1.7083329999999999,-1.608333,1
225800,-0.05957031,0.9697266,-0.1000977,16.23535,-25.02441,-25.81787,98.71216,-3.197021,8.882446,15.55,-3.775,-2.475,1
226040,-0.03271484,1.017578,-0.2319336,7.019043,-24.90234,2.441406,98.64075,1.785278,-1.7303469999999999,20.04167,-5.466667,2.641667,1
226320,0.0078125,0.8725586,0.1279297,-2.746582,-13.91602,-7.385254,99.76685,5.438232,-3.268433,1.7,-45.51667,-39.59167,1
226610,0.1079102,0.8852538999999999,-0.1552734,-7.568359,18.18848,14.46533,98.14087,0.9173583999999999,-3.273926,-1.6,-45.33333,-40.79167,1
226860,0.05957031,0.9892578,-0.3505859,0.9765625,20.87402,-1.525879,98.86597,0.2362061,2.581787,22.69167,-3.216667,-1.975,1
227140,-0.1054688,1.009766,-0.01806641,3.417969,-3.051758,1.098633,99.22852,-3.581543,8.948364,1.25,-46.38334,-37.74166,1
227400,-0.09472656,0.8491211,-0.1386719,-18.24951,-51.51367,-12.39014,99.17908,0.9777832,4.553833,16.2,-4.791667,-0.06666667,1
227740,-0.11669919999999999,1.0,-0.06396484,8.544922,46.50879,-27.28271,100.415,4.822998,-4.691162,-0.35833329999999997,-45.475,-39.75,1
228060,0.0,0.9643554999999999,-0.20996089999999998,-1.525879,29.1748,22.82715,101.1127,3.12561,-2.037964,15.78333,-4.658333,-1.3,1
228360,0.06494141,0.9775391,-0.2797852,0.0,11.71875,-0.4882813,98.72864,0.6536865,6.05896,22.81667,-2.5,1.233333,1
228700,-0.06005859,0.9301758,0.09863281,-11.84082,19.77539,12.3291,99.61304,-2.636719,10.55237,17.04167,-1.216667,2.741667,1
228890,-0.02832031,0.9257812999999999,-0.2338867,-13.12256,-23.31543,-21.24023,100.3546,-0.604248,8.942871,14.49167,-4.641667,-0.975,1
229150,-0.24072269999999998,1.044922,-0.3671875,10.13184,-24.84131,-3.723145,99.94263,2.1698,2.367554,-0.2583333,-44.50834,-39.88334,1
229410,0.01025391,0.9853516,-0.07910156,-4.211426,-1.342773,-5.371094,100.0031,7.23999,0.03845215,2.558333,-43.65,-39.88334,1
229661,0.04785156,0.9262695,-0.2578125,-10.00977,10.92529,26.67236,99.93164,2.807007,-2.438965,14.575,-4.358333,-0.6083333,1
229930,0.01464844,1.04541,-0.25439449999999997,-10.0708,14.46533,3.662109,99.646,0.8459473,1.994019,23.04167,-4.725,2.333333,1
230140,-0.06005859,0.9277344,0.0859375,-1.098633,29.60205,8.422852,100.7391,-3.197021,6.729126,-0.6916667,-45.84167,-38.65,1
230390,-0.04150391,0.9804687999999999,-0.27001949999999997,-13.91602,-14.83154,-18.24951,101.1292,-0.5548096,6.59729,14.45833,-3.691667,-1.508333,1
230640,-0.1801758,0.9467772999999999,-0.3369141,7.507324,-33.20313,-0.24414059999999999,99.26147,1.763306,-1.571045,-1.858333,-45.03333,-41.36666,1
230910,-0.1132813,0.9492187999999999,0.03369141,3.4790039999999998,-1.098633,-13.00049,100.7556,5.064697,-0.08239746,17.33333,-1.133333,-1.233333,1
231161,0.04541016,0.9091796999999999,-0.2158203,-4.699707,46.38672,22.09473,100.47,1.928101,2.087402,1.008333,-45.575,-39.775,1
231450,0.060546880000000004,1.338379,-0.2563477,17.21191,58.95996,7.141113,99.25049,0.637207,11.1676,17.44167,-1.5,2.9333329999999997,1
231770,0.01855469,0.9868163999999999,-0.01855469,9.82666,-2.868652,-16.47949,99.47021,-3.268433,13.84277,3.875,-46.51667,-37.63334,1
232060,-0.011230470000000001,0.9282227,-0.2114258,-8.666992,-28.13721,1.89209,98.43201,1.779785,6.443481,2.725,-45.04167,-41.59167,1
232330,-0.01611328,1.243164,-0.203125,22.52197,-52.24609,-6.835938,98.82751,2.807007,-0.6207275,17.74167,-0.9333332999999999,1.575,1
232600,-0.1567383,1.058105,-0.02734375,2.990723,8.483887,14.5874,100.481,6.141357,-0.5218505999999999,16.825,-3.866667,-0.1083333,1
232900,-0.05126953,0.9433594,-0.25488279999999996,-10.92529,45.71533,-5.859375,99.81079,0.8898925999999999,5.526123,15.85833,-4.666667,-0.03333333,1
233230,0.2045898,0.9814453,0.04199219,16.90674,-26.00098,16.72363,100.5634,-2.384033,13.84277,15.84167,1.3333329999999999,-0.875,1
233440,0.008789063,0.953125,-0.1191406,15.25879,-34.60693,-24.53613,100.6842,-2.763062,13.7384,15.53333,-4.808333,-3.208333,1
233650,0.02832031,0.3149414,-2.776367,-279.1138,1110.107,12.87842,9.772339,20.462040000000002,0.0,14.125,-3.8,-1.7,1
233860,-0.2651367,1.01709,-0.4536133,23.01025,-48.70605,-1.708984,99.62402,2.191772,3.076172,18.39167,-0.4333333,0.2916667,1
234110,-0.1289063,1.043457,-0.026367190000000002,5.310059,23.92578,7.202148,100.5139,5.795288,3.098145,17.21667,-3.875,1.225,1
234380,-0.005859375,0.8637695,-0.2036133,-15.56396,40.89355,-11.65771,100.6622,0.736084,7.459717,4.716667,-47.38334,-38.98333,1
234640,-0.14697269999999998,1.294922,-0.2436523,4.150391,64.14795,7.263184,100.816,-0.19226069999999998,14.00208,18.08333,-0.7166667,2.166667,1
234880,0.01904297,0.9604492,-0.1123047,19.47021,-10.74219,-29.11377,101.0522,-2.801514,18.71521,8.191667,-48.19167,-34.675,1
235260,-0.20996089999999998,0.9506836,-0.3999023,19.53125,-39.48975,-0.7324219,99.9646,1.768799,9.876709,6.1,-46.91667,-39.10833,1
235590,-0.03320313,1.019531,-0.09619141,-8.056641,39.00146,-2.13623,101.0413,5.762329,12.67273,10.81667,-46.55,-36.425,1
235880,0.01464844,0.9208984,-0.3066406,-11.35254,37.96387,-11.2915,101.1731,0.5822754,21.82983,12.05,-47.00834,-34.11666,1
236170,0.2158203,0.9648437999999999,-0.4711914,2.807617,39.12354,-5.92041,100.7172,0.5877686,27.17468,16.23333,0.425,1.55,1
236410,-0.07226563,0.9589844,-0.06738281,9.399414,-13.06152,-15.44189,100.1349,-2.889404,32.7063,14.35,-47.41667,-29.96667,1
236700,-0.03515625,0.9003905999999999,-0.1689453,-15.93018,-18.24951,3.967285,97.17407,1.768799,22.97791,16.58333,-4.608333,0.2666667,1
237040,-0.23632809999999999,1.030273,0.06396484,4.577637,26.61133,-14.52637,99.75037,5.108643,22.48352,16.5,-0.7166667,-0.9500000000000001,1
237310,0.004882813000000001,0.9038086,-0.1992188,-6.408691,24.78027,27.70996,100.3821,1.5271000000000001,25.58167,14.41667,-4.808333,-0.7416667,1
237680,0.2275391,1.016602,-0.4326172,20.20264,55.84717,-4.089355,100.2942,-0.3900146,32.57996,16.01667,0.025,3.083333,1
237880,-0.009765625,0.9404296999999999,-0.1171875,11.65771,-14.95361,-27.34375,101.239,-3.817749,40.18799,16.14167,-47.50834,-24.68333,1
238120,-0.05712891,0.9677734,-0.2685547,-14.28223,-26.55029,-14.77051,101.8762,-0.9118651999999999,38.72681,14.01667,-4.383333,-0.4166667,1
238370,-0.2666016,1.014648,-0.3632813,12.81738,-23.07129,-6.835938,100.2557,1.18103,31.77795,18.54167,-2.675,0.8833333,1
238610,-0.1103516,1.001465,-0.1337891,-1.220703,5.187988,-0.1831055,100.9369,6.05896,33.431400000000004,20.54167,-43.43333,-29.425,1
238840,0.12207029999999999,0.840332,-0.2119141,-9.155273,12.69531,23.01025,100.6403,1.593018,31.64063,16.54167,-4.925,0.525,1
239090,0.1923828,0.9916992,-0.4135742,7.93457,14.34326,-1.159668,100.7886,0.4614258,36.18347,21.76667,-0.2583333,-2.716667,1
239320,-0.15917969999999998,1.039551,-0.03076172,1.403809,-1.6479489999999999,2.319336,101.0907,-4.487915,44.23096,16.59167,-3.708333,0.875,1
239620,-0.06298828000000001,0.9145508,-0.29492189999999996,-2.868652,-27.16064,3.601074,99.90417,0.8898925999999999,42.04468,19.93333,-45.00834,-25.525,1
239910,-0.1464844,0.9296875,0.07519531,-1.89209,6.835938,-8.483887,101.7554,5.125122,39.8584,16.24167,-0.6416666999999999,-0.3416667,1
240260,0.09179688,0.8681641,-0.2226563,-13.3667,18.49365,23.19336,101.1401,2.702637,35.54626,14.08333,-4.8,-1.5,1
240520,0.1767578,1.220215,-0.38720699999999997,15.625,49.37744,5.432129,101.2006,0.5273438,43.80249,19.925,-45.49166,-22.26667,1
240790,-0.1157227,0.9721679999999999,0.004882813000000001,-2.990723,36.19385,11.1084,101.9641,-3.609009,48.23547,16.43333,-3.291667,1.141667,1
241040,-0.08544922,0.8164062999999999,-0.27001949999999997,-11.71875,-32.53174,7.263184,99.82178,1.241455,42.7533,20.00833,-44.975,-24.825,1
242320,-0.04638672,0.8706054999999999,-0.3085938,-17.21191,-28.56445,-9.887695,101.7224,0.8514404,41.9458,19.80833,-45.13334,-22.84167,1
242640,-0.109375,0.9902344,-0.27880859999999996,-1.159668,-2.01416,-4.089355,100.9039,1.307373,38.44666,20.64167,-4.916667,2.558333,1
242900,0.01757813,0.9301758,-0.04443359,8.117676,-17.08984,-13.06152,102.5848,6.080933,36.12305,16.89167,-2.325,1.658333,1
243190,-0.01025391,0.8183594,-0.3847656,-23.01025,49.01123,-10.80322,100.882,1.175537,41.39648,17.90833,-4.525,-1.125,1
243430,-0.07275391,1.362793,-0.27001949999999997,5.859375,43.94531,15.50293,99.84924,0.6811522999999999,46.97754,17.2,-0.05,1.783333,1
243640,0.01660156,0.9262695,-0.21337889999999998,9.277344,-18.49365,-26.18408,100.1239,-2.384033,46.8512,18.45,-45.725,-20.175,1
243870,-0.01318359,0.8291016,-0.2197266,-7.8125,-40.1001,11.71875,98.81104,0.9942626999999999,40.43518,16.45,-3.95,-0.125,1
244170,-0.03173828,0.953125,0.01611328,5.67627,27.70996,-31.06689,100.7336,4.130859,36.67236,15.975,-1.133333,0.4333333,1
244420,-0.07324219,0.9062500000000001,-0.06347656,12.3291,19.9585,23.01025,100.5029,5.811768,38.45764,15.65833,-4.733333,-2.083333,1
244650,-0.02685547,0.9692383,-0.2114258,-13.48877,28.68652,-7.263184,99.52515,1.263428,48.4552,20.81667,-43.06667,-19.39167,1
244940,-0.09228516,0.9570312999999999,0.05957031,-8.666992,8.728026999999999,14.22119,99.93164,-2.136841,52.10266,18.325,-45.19167,-16.61667,1
245180,-0.0625,0.9794921999999999,-0.3461914,-13.73291,-36.68213,-12.93945,101.3324,0.6701659999999999,46.91162,14.69167,-3.341667,-1.133333,1
245500,0.02832031,1.174316,-2.537109,-156.7993,1103.943,23.62061,42.35229,20.58838,0.0,16.275,-2.641667,-2.425,1
245730,-0.1367188,1.016113,-0.01806641,11.35254,-16.96777,-1.8310549999999999,100.0909,5.306396,38.36426,18.3,-2.275,-1.366667,1
245981,0.01904297,0.8618163999999999,-0.190918,-13.85498,29.60205,22.46094,98.8385,2.04895,37.77649,15.08333,-5.2,-1.525,1
246280,-0.1103516,1.356934,-0.24072269999999998,7.202148,34.97314,15.13672,98.34412,-0.02197266,46.70288,19.61667,-44.68333,-20.41667,1
246540,0.01904297,0.9570312999999999,-0.1376953,22.15576,-11.41357,-26.12305,98.34412,-3.026733,47.67517,19.24167,-45.48333,-18.55833,1
246890,-0.06689453000000001,1.007324,-0.26220699999999997,-3.845215,-17.21191,0.24414059999999999,98.12988,1.5325929999999999,41.868900000000004,21.20833,-43.28333,-23.81667,1
247290,-0.1298828,1.063477,-0.05761719,1.037598,-11.04736,24.84131,99.02527,6.251221,38.63892,16.26667,-3.358333,-0.2916667,1
247630,0.01611328,0.9750977,-0.253418,-10.86426,32.77588,-11.35254,99.67346,0.8294678,44.90662,17.86667,-8.858334,1.966667,1
247851,-0.140625,0.9194336,-0.03173828,-6.469727,-25.08545,40.40527,100.1074,-1.774292,48.20801,17.125,0.6666667,-0.04166667,1
248050,-0.06542969,0.9663086,-0.10498049999999999,-0.9765625,-23.49854,-16.05225,100.5743,-2.763062,47.23022,17.2,-5.516667,-0.06666667,1
248260,0.00390625,0.7900391,-0.2026367,-9.765625,-26.61133,3.234863,99.98108,1.488647,40.98999,16.53333,-3.466667,-2.183333,1
248500,0.2270508,1.109375,-0.07080078000000001,-5.981445,33.38623,-36.92627,100.0745,4.207764,39.24866,23.58333,-41.39167,-23.19167,1
248730,-0.02001953,1.026367,0.0,-8.850098,10.37598,16.72363,99.43176,5.635986,38.95752,16.525,-4.833333,-0.2833333,1
248970,-0.05615234,1.022949,-0.2236328,-13.97705,33.3252,-0.6713867,99.28345,0.6262207,44.23096,21.29167,-43.58333,-21.35,1
249230,-0.09130859,0.9902344,-0.06005859,15.25879,-23.31543,29.29688,99.87671,-1.7303469999999999,47.94983,16.34167,0.8083332999999999,-0.008333334000000001,1
249490,-0.06738281,0.996582,-0.24121089999999998,-6.469727,-24.59717,-22.46094,100.9149,-0.5548096,47.25769,21.95,-43.29167,-18.53333,1
249800,0.00390625,0.9790038999999999,-0.2260742,-5.187988,-18.79883,3.4790039999999998,99.68994,1.593018,40.29236,17.18333,-8.108334,3.316667,1
250040,-0.06152344,0.9169921999999999,0.09375000000000001,-7.446289,-21.11816,-12.93945,101.2775,5.9655759999999995,40.41321,17.50833,-1.025,-0.6583333,1
250300,0.020996090000000002,0.8120117,-0.30175779999999996,-10.13184,26.7334,8.728026999999999,99.21204,1.483154,39.67712,22.45,-42.38334,-22.81667,1
250620,-0.2075195,1.020508,-0.06640625,0.12207029999999999,-17.76123,35.88867,100.459,-1.8951419999999999,46.71387,17.49167,1.341667,0.225,1
250900,-0.06494141,0.9643554999999999,-0.253418,0.7324219,-37.59766,-24.4751,101.1841,-0.5603026999999999,44.70337,22.44167,-43.78333,-20.525,1
251220,-0.2680664,1.012695,-0.41845699999999997,11.71875,-24.23096,-5.554199,100.8655,1.966553,38.91357,19.15,-2.575,0.8,1
251530,0.03515625,1.074219,-0.1640625,-13.48877,6.103516,-2.01416,101.3983,6.641235,36.97449,17.40833,-4.458333,1.366667,1
251830,-0.02001953,0.8701171999999999,-0.3076172,-20.56885,40.40527,-13.12256,100.3107,1.378784,43.16528,16.29167,-5.516667,-0.08333334,1
252190,-0.08837891,0.9755859,0.06347656,-12.57324,12.26807,5.7983400000000005,99.34387,-2.131348,47.28516,20.40833,-43.86666,-19.86667,1
252460,-0.14697269999999998,0.9013671999999999,-0.2192383,-9.094238,-49.1333,-13.79395,99.59106,0.8239746,43.53882,14.84167,-4.725,-0.9166667,1
252730,-0.08544922,0.9897461,-0.1855469,-9.521484,-4.333496,7.141113,98.44299,1.977539,36.85913,17.325,-7.066667,2.558333,1
252940,-0.03515625,0.9155272999999999,0.04833984,0.8544921999999999,-8.728026999999999,-12.20703,100.1733,5.350342,35.20569,17.2,-0.525,0.06666667,1
253190,-0.02685547,0.9394530999999999,-0.2719727,-5.737305,16.05225,23.68164,100.816,2.752075,36.49109,14.76667,-4.291667,-0.25,1
253410,0.144043,1.003418,-0.41894529999999996,20.32471,15.01465,2.502441,100.7391,0.4998779,43.13782,15.725,-0.8,2.508333,1
