Timestamp,AccX,AccY,AccZ,GyroX,GyroY,GyroZ,AngX,AngY,AngZ,MagX,MagY,MagZ,Tag
0,-0.09619141,1.006348,-0.1254883,0.1831055,1.464844,-0.42724609999999996,91.25793,4.465942,-144.7284,56.44167,-85.90833,81.60833,1
510,-0.08496094,1.010254,-0.1416016,-0.4882813,0.9765625,0.1831055,91.01074,4.553833,-144.5691,17.23333,-2.241667,-0.075,1
750,-0.09375000000000001,1.001465,-0.12744139999999998,0.24414059999999999,-1.342773,0.12207029999999999,90.87341,4.454956,-144.5306,56.63334,-86.0,81.44167,1
1100,-0.07470703000000001,1.009277,-0.1328125,0.5493163999999999,2.075195,0.0,90.85144,4.65271,-144.5856,17.23333,-2.383333,0.125,1
1350,-0.07080078000000001,1.005859,-0.125,0.8544921999999999,-0.1831055,0.0,90.71411,4.498901,-144.7833,17.175,-2.383333,-0.04166667,1
1660,-0.07324219,1.003418,-0.1098633,-1.342773,3.417969,-0.24414059999999999,90.49438,4.432983,-144.8273,56.66667,-86.075,81.325,1
1940,-0.06542969,1.007324,-0.1132813,-0.793457,-0.06103516,0.06103516,90.36255,4.515381,-144.7723,17.15,-2.316667,-0.2333333,1
2160,-0.08740234,1.007324,-0.1201172,-0.5493163999999999,-1.037598,-0.1831055,90.11536,4.493408,-144.4208,17.29167,-1.916667,0.0,1
2470,-0.09667969,1.007813,-0.1411133,-0.3662109,0.24414059999999999,-0.3662109,90.01648,4.564819,-144.5416,17.44167,-2.125,0.008333334000000001,1
2720,-0.1040039,1.009766,-0.12207029999999999,-2.075195,1.525879,-1.281738,89.73633,4.921875,-144.3109,17.425,-1.983333,-0.40833329999999995,1
4050,-0.09667969,1.021973,-0.121582,1.464844,-2.929688,5.554199,89.68689,4.32312,-145.2338,17.35833,-1.875,0.3916667,1
4320,-0.05224609,1.013672,-0.1171875,2.746582,-0.6713867,9.033203,90.49438,2.2796629999999998,-146.3763,17.775,-2.65,0.6416666999999999,1
4590,-0.03125,1.034668,-0.09912109000000001,-11.1084,-5.310059,-2.563477,89.97253,1.82373,-148.8977,17.53333,-1.558333,-1.375,1
4890,-0.08447266,0.9824219,-0.06787109,-3.417969,-4.150391,0.7324219,87.20398,2.406006,-148.5901,57.075,-88.85833,77.58334,1
5190,-0.06494141,1.025391,-0.06445313,0.0,-0.8544921999999999,-1.342773,86.75354,2.191772,-149.1284,57.29167,-89.34167,76.775,1
5480,-0.03662109,1.008789,-0.008300781,-4.333496,-0.6103516,3.051758,86.3031,1.669922,-148.3923,56.40833,-90.0,76.84167,1
5770,-0.03808594,1.005371,-0.02978516,-1.708984,2.746582,-0.8544921999999999,86.39099,1.6754149999999999,-148.3099,17.19167,-0.9500000000000001,0.0,1
6060,-0.04980469,1.035645,-0.03271484,-2.258301,3.967285,-0.12207029999999999,86.25366,1.790771,-147.9089,17.4,-0.1,-0.075,1
6260,-0.04003906,0.9970703,-0.02539063,4.821777,-3.173828,-0.9155272999999999,86.42395,1.785278,-147.7826,17.53333,-0.6416666999999999,0.075,1
6480,-0.03955078,1.017578,-0.03222656,-1.342773,0.0,0.7324219,87.04468,1.713867,-147.876,17.34167,-0.48333329999999997,0.25,1
6690,-0.007324219000000001,1.003906,-0.03369141,2.258301,0.06103516,-0.12207029999999999,87.25342,1.604004,-147.843,16.90833,-0.1833333,0.2833333,1
6900,0.006347656,0.996582,-0.02832031,-2.319336,-1.342773,1.037598,87.42371,1.565552,-148.299,56.46667,-90.03333,76.525,1
7130,-0.06201172,1.057129,-0.030273440000000002,0.1831055,0.9765625,-1.342773,87.66541,1.461182,-147.9803,17.10833,-0.47500000000000003,-0.325,1
7390,-0.04443359,1.022461,-0.03613281,1.220703,-0.793457,0.4882813,87.9895,1.593018,-148.0408,56.31667,-90.05,76.63333,1
7640,-0.04199219,1.023926,-0.026367190000000002,0.24414059999999999,0.9155272999999999,0.12207029999999999,88.30811,1.587524,-148.0902,17.25,-0.6916667,0.0,1
7920,-0.03271484,1.016113,-0.03222656,0.06103516,0.3662109,0.3662109,88.45642,1.593018,-148.0847,56.43333,-89.86667,76.75833,1
8200,-0.03076172,1.008789,-0.04589844,-1.403809,-0.06103516,-0.6713867,88.80249,1.565552,-147.9968,56.45833,-89.78333,77.00833,1
8460,-0.04394531,1.026367,-0.03857422,-0.4882813,1.525879,0.5493163999999999,88.72009,1.571045,-147.6837,17.5,-0.8916666,0.1666667,1
8730,-0.03222656,1.015137,-0.041015630000000004,0.42724609999999996,0.6103516,1.403809,88.88489,1.3623049999999999,-147.5519,55.95833,-89.84167,77.04166,1
9000,-0.01660156,1.025879,-0.05419922,1.525879,-0.5493163999999999,0.3662109,88.97827,1.274414,-147.453,55.81667,-89.98333,77.10833,1
9300,-0.01953125,1.014648,-0.026367190000000002,0.3051758,-1.464844,-1.281738,89.17603,1.318359,-147.4255,17.46667,-0.9500000000000001,-0.1666667,1
9550,-0.026367190000000002,1.003906,-0.02929688,2.502441,-2.685547,0.24414059999999999,89.25293,1.224976,-147.3102,55.93333,-89.95,77.30833,1
9830,-0.006347656,1.007324,-0.05712891,0.6103516,-0.6103516,0.0,89.37927,1.329346,-147.9089,17.15833,-0.48333329999999997,0.08333334,1
10160,-0.01611328,0.9956054999999999,-0.03173828,-1.098633,0.0,-0.3662109,89.47815,1.340332,-147.7112,17.375,-0.9,-0.1833333,1
10470,-0.01904297,0.9970703,-0.06103516,2.441406,-4.333496,0.0,89.61548,1.30188,-147.5684,17.4,-0.7916667,0.09166667,1
10710,-0.05908203,1.022461,-0.044921880000000004,-2.624512,0.6103516,0.793457,89.68689,1.148071,-147.6617,17.15833,-0.8666667,0.025,1
10910,-0.026367190000000002,1.024902,-0.03222656,-0.9155272999999999,2.868652,0.9155272999999999,89.76929,1.087646,-147.6288,17.25833,-1.05,0.275,1
11130,-0.006835938000000001,1.029297,-0.05761719,-1.098633,0.06103516,-0.6103516,89.95605,1.252441,-147.8815,56.05,-89.78333,77.39167,1
11360,-0.03076172,1.011719,-0.04931641,-2.624512,1.098633,1.6479489999999999,89.45618,1.2854,-147.7771,17.48333,-0.5916667,-0.125,1
11630,-0.02294922,1.006348,-0.024902340000000002,2.929688,-1.586914,0.3051758,89.42322,0.8953857,-147.6068,17.4,-0.85,0.275,1
11930,0.0034179690000000003,1.007813,-0.04394531,0.8544921999999999,-2.441406,-1.342773,89.65942,1.137085,-148.0188,56.08333,-89.85833,77.09167,1
12240,-0.03173828,1.02002,-0.05712891,1.037598,-2.807617,-0.3662109,90.10986,1.224976,-147.9144,55.98333,-89.59167,77.36667,1
12510,-0.03466797,1.011719,-0.03613281,1.281738,-0.6713867,-0.1831055,90.20325,1.131592,-147.8925,17.675,-0.9,-0.1166667,1
12760,-0.02685547,1.021973,-0.07177734,-1.098633,-2.624512,-1.281738,90.18677,1.109619,-148.1122,56.18333,-89.64167,77.4,1
13050,0.004394531,1.01123,-0.03759766,1.525879,4.333496,-0.3662109,89.86267,1.142578,-148.1232,17.45,-1.133333,-0.025,1
13350,-0.02392578,1.016602,-0.028808590000000002,-1.525879,1.342773,1.586914,89.87915,1.016235,-147.9309,55.84167,-89.825,77.33334,1
13670,-0.02392578,1.004883,-0.046875,-0.5493163999999999,1.342773,0.06103516,89.76929,1.082153,-147.5079,17.3,-0.8166667,0.2583333,1
14000,-0.01464844,1.005371,-0.0546875,2.319336,-1.586914,-1.098633,90.00549,0.9832763999999999,-147.3926,17.525,-1.141667,-0.2333333,1
14280,-0.02734375,1.011719,-0.041015630000000004,0.06103516,0.5493163999999999,-0.3051758,89.58801,1.3623049999999999,-147.42,17.125,-0.8166667,0.24166669999999998,1
14610,-0.03808594,1.016113,-0.04443359,3.356934,-2.319336,2.319336,90.14832,1.137085,-147.6508,17.49167,-1.258333,0.55,1
14920,-0.02441406,1.024414,-0.06298828000000001,-1.098633,0.12207029999999999,-0.3051758,90.59875,0.7415771,-147.843,17.325,-0.8583333999999999,-0.25,1
15140,-0.01953125,1.005859,-0.06689453000000001,1.037598,0.4882813,0.24414059999999999,90.32959,0.7690429999999999,-147.9144,17.35,-1.2,0.025,1
15370,-0.02050781,1.021973,-0.060546880000000004,-1.281738,-0.42724609999999996,-1.586914,89.78577,0.6207275,-147.6947,55.6,-90.00833,77.08334,1
15600,-0.026367190000000002,1.021484,-0.03662109,-2.319336,0.6713867,-3.540039,89.41772,1.329346,-147.8705,17.34167,-0.7666666999999999,0.06666667,1
15840,-0.005371094000000001,1.030273,-0.04443359,-1.098633,-2.197266,-0.793457,89.84619,1.768799,-148.0408,56.53333,-89.55,76.975,1
16090,-0.03466797,1.02002,-0.05957031,-4.272461,2.380371,1.7700200000000001,89.74731,1.691895,-148.3154,17.2,-0.2916667,-0.15,1
16370,-0.02539063,0.9980469,-0.03369141,-1.89209,3.417969,1.281738,89.46167,1.126099,-148.4198,56.00834,-90.11667,76.75,1
16670,-0.02294922,1.023438,-0.03662109,1.525879,0.793457,-0.6713867,89.78577,1.153564,-148.2385,17.08333,-0.7000000000000001,-0.3333333,1
16980,-0.01855469,1.033691,-0.02734375,-3.723145,-0.5493163999999999,-0.12207029999999999,89.30237,1.461182,-147.9694,56.325,-90.13333,76.51667,1
17270,0.05322266,0.9902344,-0.04541016,9.338379,-5.554199,0.06103516,90.46143000000001,1.565552,-148.288,17.49167,-0.875,-0.5166666999999999,1
17590,-0.03320313,0.9770508,-0.028808590000000002,-8.178711,0.24414059999999999,1.037598,89.17603,1.972046,-147.8265,56.66667,-89.875,76.33334,1
17880,-0.00390625,1.042969,-0.05224609,7.080078,2.990723,0.3662109,90.47791,2.191772,-147.5464,56.61666,-89.08334,77.675,1
18150,-0.01855469,1.039551,-0.12060549999999999,-12.08496,-2.258301,0.12207029999999999,89.80225,2.241211,-147.5464,16.86667,-0.025,-0.17500000000000002,1
18400,-0.03173828,0.9760742,-0.02587891,3.540039,3.845215,2.319336,89.94507,2.15332,-147.7606,56.65833,-89.4,77.04166,1
18710,-0.007324219000000001,0.9877929999999999,-0.078125,-6.896973,-1.708984,0.793457,89.52759,2.142334,-148.0298,16.925,0.2583333,0.2666667,1
19020,-0.05322266,1.006348,-0.008789063,1.098633,-0.1831055,-0.9155272999999999,88.85193,2.114868,-147.6288,17.36667,-0.30000000000000004,0.3083333,1
19320,-0.03759766,1.005371,-0.028808590000000002,-0.9155272999999999,1.6479489999999999,0.1831055,89.2749,1.939087,-147.4915,17.65,-0.5166666999999999,-0.15833329999999998,1
19680,-0.02001953,1.007324,-0.02539063,1.342773,0.42724609999999996,-0.42724609999999996,89.37927,2.021484,-147.8101,56.53333,-89.95834,76.575,1
19950,-0.05615234,1.030762,-0.04980469,-0.12207029999999999,1.953125,0.42724609999999996,89.71985,2.04895,-147.6068,17.4,-1.058333,0.08333334,1
21180,-0.01416016,1.006836,-0.04345703,0.0,-1.586914,0.6103516,89.77478,1.488647,-147.5574,17.15833,-0.525,0.04166667,1
21380,-0.01904297,1.024902,-0.03759766,0.24414059999999999,1.89209,-1.159668,89.94507,1.543579,-147.475,17.33333,-0.8,0.2166667,1
21600,-0.03125,1.01709,-0.03759766,0.12207029999999999,-1.708984,-0.1831055,90.05493,1.6479489999999999,-147.6727,56.35,-89.85,76.83334,1
21840,-0.02587891,1.020996,-0.03466797,-0.7324219,1.220703,0.6103516,89.97803,1.604004,-147.6343,17.28333,-0.7916667,0.2583333,1
22090,-0.03564453,1.016602,-0.03710938,0.1831055,-0.06103516,-0.42724609999999996,90.04944,1.521606,-147.5848,17.41667,-0.725,0.01666667,1
22300,-0.01757813,1.010742,-0.046875,2.075195,-2.624512,0.12207029999999999,90.09888,1.5051269999999999,-147.7936,56.11666,-89.74167,76.775,1
22560,-0.0546875,1.007324,-0.02685547,-0.6103516,0.0,0.42724609999999996,90.12634,1.499634,-147.4915,17.31667,-0.8666667,0.1833333,1
22830,-0.002929688,1.018555,-0.052734380000000004,-0.12207029999999999,0.3051758,-0.4882813,90.24719,1.5271000000000001,-147.9254,56.24166,-89.725,76.89167,1
23100,-0.02734375,1.025391,-0.05908203,-0.9155272999999999,3.78418,0.0,90.16479,1.571045,-147.78810000000001,56.325,-89.8,76.875,1
23400,-0.0234375,1.011719,-0.05224609,0.0,-1.708984,0.6713867,90.02747,1.549072,-147.7057,17.53333,-0.48333329999999997,-0.03333333,1
23640,-0.017089840000000002,1.022461,-0.04345703,1.159668,-6.408691,-0.3662109,89.89563,1.461182,-147.865,56.21667,-89.96667,76.79166,1
23910,-0.03710938,1.009766,-0.02050781,5.065918,-0.6713867,1.708984,89.77478,1.428223,-147.5409,56.125,-89.91666,76.81667,1
24230,-0.0078125,1.03125,-0.04980469,-1.037598,2.502441,2.319336,90.65369,1.016235,-147.5629,55.85,-89.775,77.24167,1
24530,-0.04199219,1.013184,-0.01904297,-0.3051758,0.1831055,0.6713867,89.9176,0.8953857,-147.7002,17.84167,-1.375,-0.01666667,1
24900,-0.03173828,1.015625,-0.05908203,0.4882813,-1.708984,0.12207029999999999,90.34607,0.9997558999999999,-147.7716,17.28333,-0.8083332999999999,0.17500000000000002,1
25100,-0.01220703,1.005371,-0.056640630000000004,0.793457,-0.06103516,0.9155272999999999,90.31311,0.8459473,-147.5574,55.56667,-89.99167,77.21667,1
25350,-0.009277344,1.018066,-0.05957031,-1.098633,-1.098633,0.3051758,90.27466,0.8074950999999999,-147.5189,17.34167,-0.6083333,-0.2333333,1
25610,-0.004882813000000001,1.012207,-0.046875,-1.708984,2.807617,0.6713867,90.05493,0.7580566,-147.3706,17.78333,-0.875,-0.1833333,1
25830,-0.01416016,1.023926,-0.03808594,0.06103516,-0.6103516,0.1831055,89.86267,0.7415771,-147.3376,55.46667,-90.23333,76.95,1
26070,-0.02050781,1.023438,-0.03857422,0.1831055,2.563477,-0.5493163999999999,89.82422,0.6536865,-147.0026,17.24167,-0.6166667,-0.1416667,1
26320,-0.02392578,1.016602,-0.03222656,-1.037598,-0.6713867,0.3051758,89.79675,0.7196045,-146.9147,17.44167,-0.5916667,-0.125,1
26530,-0.01855469,1.018555,-0.030273440000000002,0.4882813,0.7324219,0.6713867,89.61548,0.7525634999999999,-147.1454,55.54167,-90.35,76.84167,1
26780,-0.02050781,1.019043,-0.03320313,0.5493163999999999,0.6713867,-0.4882813,89.80774,0.7745361,-146.9257,17.225,-0.49166669999999996,-0.008333334000000001,1
27060,-0.030273440000000002,1.018555,-0.04296875,-0.3051758,-0.9155272999999999,0.1831055,89.94507,0.8898925999999999,-146.8378,55.375,-90.14167,77.15,1
27330,-0.03955078,1.009277,-0.030273440000000002,-0.8544921999999999,0.6103516,-0.06103516,89.84619,0.8734130999999999,-146.7279,55.45,-90.11667,77.2,1
27630,-0.009765625,1.022461,-0.03710938,0.7324219,-0.1831055,-0.1831055,89.76379,0.9008788999999999,-146.9806,17.33333,-0.6083333,0.1333333,1
27880,-0.015625,1.012695,-0.03564453,1.098633,0.0,-0.5493163999999999,89.87366,0.7910155999999999,-146.8652,55.38334,-90.26667,77.01667,1
28140,-0.01171875,1.016602,-0.05224609,1.525879,0.42724609999999996,-0.12207029999999999,90.07141,0.8184813999999999,-147.1344,55.38334,-90.15,77.06667,1
28460,-0.01025391,1.046387,-0.05957031,0.3051758,-4.516602,0.6103516,90.25269,0.9777832,-147.7716,55.99166,-90.01667,76.85833,1
28760,-0.05908203,0.9975586,-0.01318359,-2.319336,0.12207029999999999,0.7324219,89.4397,0.8734130999999999,-147.6178,17.05,-0.2083333,-0.025,1
29130,-0.006835938000000001,1.024414,-0.05029297,2.746582,0.1831055,0.7324219,90.1593,0.6811522999999999,-148.645,17.64167,-0.6416666999999999,0.09166667,1
29340,0.01025391,1.015137,-0.05859375,0.1831055,0.06103516,0.3051758,90.6427,0.44494629999999996,-148.3264,55.825,-90.04166,76.99167,1
29570,0.004394531,1.014648,-0.04296875,0.3662109,-1.89209,0.42724609999999996,90.39551,0.5383300999999999,-148.3649,17.40833,-0.525,0.04166667,1
29850,-0.00390625,1.018066,-0.060546880000000004,2.075195,-3.723145,-1.8310549999999999,90.42847,0.637207,-148.3209,17.5,-1.25,0.925,1
30060,-0.04833984,1.030273,-0.030273440000000002,-4.394531,-0.8544921999999999,-1.037598,90.14282,0.7855225,-147.876,55.83333,-90.15,76.85833,1
30300,-0.02148438,1.010254,-0.006347656,-0.3662109,-0.6713867,-1.8310549999999999,89.50012,1.054688,-147.7936,17.51667,-1.1,0.2833333,1
30550,-0.030273440000000002,1.033691,-0.02734375,-0.8544921999999999,0.3051758,0.24414059999999999,89.62097,1.279907,-148.0133,17.25,-0.45,-0.03333333,1
30770,-0.06835938,1.015137,-0.01464844,-3.78418,0.3662109,1.037598,89.11011,1.131592,-147.431,17.36667,-0.36666669999999996,0.15,1
31080,-0.05175781,1.023438,-0.04199219,1.708984,-0.06103516,-1.098633,89.67041,1.477661,-147.3926,56.175,-90.15,76.29166,1
31370,-0.022460940000000002,1.020508,-0.03515625,0.3662109,1.037598,1.953125,89.78577,1.3348389999999999,-147.1509,17.35,-0.6583333,0.225,1
31690,-0.02294922,1.013184,-0.02783203,2.441406,-2.441406,0.24414059999999999,90.14282,1.175537,-147.2992,55.84167,-90.05833,76.91666,1
31980,-0.030273440000000002,1.005371,-0.02685547,0.0,1.281738,0.42724609999999996,90.29663,1.115112,-147.5629,56.0,-90.05833,76.83334,1
32250,-0.03222656,1.030762,-0.04199219,-0.5493163999999999,-0.1831055,0.0,90.34607,1.153564,-147.7936,16.76667,-0.4666667,-0.125,1
32490,-0.030273440000000002,1.006348,-0.011230470000000001,0.42724609999999996,2.01416,2.075195,90.02747,0.703125,-147.7112,55.74166,-90.275,76.64167,1
32810,-0.017089840000000002,1.023438,-0.04052734,-0.24414059999999999,1.403809,-0.6103516,90.24719,0.9558105,-147.9419,17.39167,-1.033333,0.2083333,1
33120,-0.028808590000000002,1.010742,-0.03173828,0.06103516,0.8544921999999999,0.0,90.17578,0.8239746,-147.2113,17.28333,-0.7583333,0.008333334000000001,1
33420,-0.005859375,1.02002,-0.028808590000000002,0.0,-0.06103516,0.24414059999999999,90.12085,0.7086182,-147.4585,17.21667,-0.675,0.1416667,1
33780,-0.001953125,1.014648,-0.0390625,-0.9765625,0.24414059999999999,0.42724609999999996,90.11536,0.6701659999999999,-147.4915,55.60833,-90.20834,76.48333,1
34050,-0.03417969,1.022461,-0.03662109,1.7700200000000001,-3.601074,-0.42724609999999996,90.12634,0.6591796999999999,-147.3706,17.31667,-0.9416667,0.0,1
34300,-0.02685547,1.016113,-0.03466797,0.06103516,-1.586914,0.24414059999999999,89.99451,0.7141113,-147.2937,55.76667,-90.2,76.81667,1
34530,-0.008300781,1.015625,-0.03710938,0.5493163999999999,0.4882813,0.06103516,89.98352,0.7855225,-147.6453,17.44167,-0.55,-0.1,1
34780,-0.004882813000000001,1.023438,-0.048828130000000004,1.953125,-4.150391,0.4882813,90.0824,0.8679199,-147.7222,17.23333,-0.2916667,-0.1416667,1
34990,-0.01953125,1.019531,-0.04345703,2.197266,1.7700200000000001,-0.12207029999999999,90.36804,0.8898925999999999,-147.6617,55.85,-89.975,76.825,1
35240,-0.01904297,1.006836,-0.04296875,0.9765625,-2.13623,-0.1831055,90.49438,0.8898925999999999,-147.854,17.30833,-0.9083334,0.09166667,1
35520,-0.028808590000000002,1.025879,-0.03466797,-2.01416,1.89209,1.6479489999999999,90.46143000000001,0.8184813999999999,-147.7167,55.85833,-90.1,76.9,1
35790,-0.02294922,1.024414,-0.05224609,-0.6713867,-1.7700200000000001,-0.24414059999999999,90.35706,0.802002,-147.5079,55.84167,-90.04166,76.70834,1
36090,-0.015625,1.009277,-0.02978516,1.098633,-0.3662109,0.793457,90.21423,0.8514404,-147.4695,17.50833,-0.925,0.075,1
36340,-0.02734375,1.016113,-0.02050781,2.197266,-2.807617,0.8544921999999999,90.25818,0.8569336,-147.2443,55.775,-90.03333,77.05,1
36600,-0.01318359,1.012695,-0.046875,-0.3051758,-1.464844,1.281738,90.51636,0.7141113,-147.5903,55.64167,-90.00833,77.2,1
37890,-0.01269531,1.013672,-0.03955078,-0.8544921999999999,0.0,-0.8544921999999999,90.00549,0.6921387,-147.063,17.29167,-0.7416667,0.24166669999999998,1
38140,-0.01953125,1.02002,-0.05078125,0.8544921999999999,-3.2958979999999998,-0.8544921999999999,90.25269,0.7910155999999999,-147.453,55.76667,-90.00833,77.10833,1
38450,-0.0234375,1.018555,-0.04541016,0.42724609999999996,-1.220703,-0.4882813,90.25818,0.9393311,-147.3981,17.425,-0.5583332999999999,0.008333334000000001,1
38750,-0.008789063,1.015625,-0.06201172,1.342773,-2.380371,1.098633,90.44495,0.6427001999999999,-147.5629,17.26667,-0.7416667,-0.2916667,1
39090,-0.024902340000000002,1.030273,-0.04296875,-0.9765625,2.01416,-0.42724609999999996,90.17578,0.5767822,-147.2772,17.55833,-0.9083334,-0.09166667,1
39320,-0.01171875,1.018066,-0.041015630000000004,0.8544921999999999,2.319336,-0.9155272999999999,90.12634,0.8184813999999999,-147.2717,55.7,-90.05833,77.03333,1
39570,-0.017089840000000002,1.026855,-0.06787109,-0.5493163999999999,0.1831055,0.6103516,90.2417,0.9063721,-147.2333,17.2,-1.066667,0.08333334,1
39810,-0.01171875,1.030273,-0.060546880000000004,0.06103516,-4.394531,-0.1831055,90.14282,0.9228516,-147.3981,55.93333,-89.91666,77.025,1
40040,-0.01171875,1.01709,-0.0390625,-0.06103516,0.1831055,0.3051758,90.14282,0.8349609,-147.3102,17.15833,-1.25,0.03333333,1
40320,-0.01611328,1.002441,-0.009765625,1.586914,0.42724609999999996,-0.3662109,90.13184,0.7965088,-147.2168,17.18333,-1.1,-0.2333333,1
40530,-0.006835938000000001,1.029297,-0.06933594,-2.624512,2.868652,0.7324219,89.99451,0.7305908,-147.5958,17.65833,-0.5666667,0.44166669999999997,1
40760,-0.03369141,1.023438,-0.03955078,-0.3662109,3.601074,1.464844,90.09338,0.7415771,-148.0023,17.51667,-0.8833333,0.06666667,1
41040,0.01025391,1.020996,-0.03710938,2.624512,4.760742,-0.1831055,90.30762,0.7196045,-147.7936,55.85833,-90.01667,77.05833,1
41300,-0.008789063,1.01709,-0.06835938,-0.6103516,-0.3662109,0.0,90.40649,0.7525634999999999,-147.8485,17.275,-0.7083332999999999,-0.225,1
41550,-0.03515625,1.005371,-0.05078125,-0.793457,-1.220703,1.89209,90.03845,0.7141113,-147.5793,55.81667,-89.98333,76.93333,1
41850,-0.04003906,1.023926,-0.04785156,1.037598,0.24414059999999999,-0.5493163999999999,89.90662,0.6207275,-147.6343,55.68333,-90.14167,76.61667,1
42120,-0.01904297,1.010254,-0.05419922,0.42724609999999996,-3.051758,-0.9155272999999999,89.97253,0.6646729,-147.6947,17.40833,-0.7666666999999999,-0.15,1
42370,-0.02929688,1.027832,-0.04296875,0.0,3.845215,0.24414059999999999,89.93958,0.6921387,-147.1783,55.63334,-90.14167,77.08334,1
42680,-0.011230470000000001,1.003418,-0.02587891,-1.220703,2.441406,1.281738,89.41772,0.7635498,-147.074,17.21667,-0.675,-0.5583332999999999,1
42980,-0.026367190000000002,1.008789,-0.017089840000000002,1.6479489999999999,-1.89209,-0.7324219,89.07715,0.8459473,-147.0245,17.225,-0.6583333,0.45,1
43320,-0.02587891,1.016113,-0.02197266,0.0,0.0,-0.12207029999999999,89.51111,0.9283446999999999,-146.9916,17.28333,-0.425,0.025,1
43550,-0.02734375,1.025391,-0.04443359,0.9155272999999999,0.793457,0.24414059999999999,89.86267,0.9997558999999999,-147.074,55.89167,-90.10833,76.75,1
43800,-0.02001953,1.033203,-0.03613281,-0.9765625,0.9155272999999999,0.24414059999999999,89.81323,0.9887695,-147.2388,17.3,-0.9,0.15,1
44040,-0.03710938,1.010254,-0.03662109,0.5493163999999999,-2.197266,-0.42724609999999996,89.86267,1.060181,-147.2113,55.90833,-90.1,76.88333,1
44280,-0.01171875,1.003418,-0.08740234,0.6713867,-1.098633,0.6103516,90.04395,0.8569336,-147.5189,17.33333,-0.2916667,0.04166667,1
44540,-0.04052734,1.054199,-0.04394531,2.746582,-3.417969,3.723145,90.37903,0.368042,-147.7222,17.59167,-0.6916667,0.6333333,1
44760,-0.01269531,1.049805,-0.05712891,6.469727,-0.9155272999999999,5.7983400000000005,91.47217,-0.5603026999999999,-148.1946,17.85833,-1.275,0.8916666,1
44990,0.02001953,1.022461,-0.07958984,0.06103516,-0.8544921999999999,0.0,92.76855,-1.587524,-148.8373,17.225,-1.341667,-0.36666669999999996,1
45260,-0.03857422,1.040039,-0.024902340000000002,-9.277344,0.793457,-8.666992,91.49963,-0.13732909999999998,-148.7494,55.83333,-89.71667,77.525,1
45520,0.04638672,1.01416,-0.07714844,-2.380371,11.35254,-11.53564,90.70862,1.6479489999999999,-148.3813,17.225,-0.8666667,0.7416667,1
45810,-0.03857422,0.9960937999999999,-0.07177734,1.586914,4.821777,0.8544921999999999,90.86792,2.636719,-147.052,17.36667,-1.416667,-0.15833329999999998,1
46080,-0.04541016,1.023438,-0.01855469,-10.55908,1.708984,5.737305,89.95056,1.175537,-146.8707,55.8,-89.85,77.35,1
46350,0.005859375,1.000977,-0.02783203,-9.094238,-6.835938,2.197266,88.24219,0.32409669999999996,-147.2113,17.175,0.275,-1.125,1
46600,0.008789063,1.038574,-0.009765625,-0.7324219,-3.601074,-1.89209,87.05017,0.0604248,-147.3212,55.20833,-91.66666,74.65,1
46910,-0.04199219,1.015137,-0.0004882813,1.281738,0.06103516,-1.220703,87.48413,0.4284668,-147.1344,17.375,0.09166667,0.31666669999999997,1
47250,-0.001953125,1.020508,-0.015625,1.220703,-0.7324219,-0.793457,88.11584,0.604248,-147.3212,17.35833,-0.1416667,0.1666667,1
47520,-0.02392578,1.012207,-0.004882813000000001,0.6713867,1.281738,0.5493163999999999,88.45093,0.6097412,-147.3322,17.45,-0.24166669999999998,-0.05,1
47880,-0.0234375,1.016113,-0.009765625,-0.06103516,1.098633,0.24414059999999999,88.7915,0.4998779,-147.3322,55.51667,-91.0,75.46667,1
48160,-0.004882813000000001,1.018555,-0.01904297,0.793457,-1.464844,-0.1831055,88.94531,0.4998779,-147.3761,17.31667,-0.2166667,0.05833333,1
48390,-0.01660156,1.013672,-0.011230470000000001,0.12207029999999999,0.24414059999999999,0.42724609999999996,89.05518,0.5163574,-147.2937,17.21667,-0.15,0.0,1
48610,-0.007324219000000001,1.023438,-0.02441406,0.24414059999999999,0.3051758,0.0,89.22546,0.5218505999999999,-147.3926,55.53333,-90.94167,75.63333,1
48870,-0.01171875,1.018066,-0.017089840000000002,0.06103516,0.0,-0.06103516,89.2804,0.5163574,-147.3871,17.4,-0.31666669999999997,0.04166667,1
49090,-0.01660156,1.013672,-0.015625,0.0,0.0,0.1831055,89.3573,0.5108642999999999,-147.3541,55.525,-90.925,75.775,1
49320,-0.01611328,1.018555,-0.01806641,0.1831055,-0.1831055,-0.06103516,89.36829,0.5218505999999999,-147.3267,17.35833,-0.24166669999999998,0.0,1
49620,-0.01464844,1.017578,-0.01660156,0.12207029999999999,-0.12207029999999999,0.0,89.42322,0.5163574,-147.3047,55.66667,-90.88333,75.66666,1
49890,-0.01416016,1.01709,-0.01611328,0.24414059999999999,-0.06103516,0.0,89.47815,0.5383300999999999,-147.3706,55.575,-91.025,75.6,1
50190,-0.011230470000000001,1.020508,-0.02001953,-0.12207029999999999,0.06103516,0.0,89.54407,0.5548096,-147.3596,17.3,-0.2916667,0.0,1
50440,-0.008789063,1.01709,-0.01953125,0.3662109,-0.1831055,0.0,89.62097,0.5767822,-147.3816,55.675,-90.925,75.75,1
50700,-0.01269531,1.020508,-0.01953125,0.0,-0.06103516,0.06103516,89.65942,0.5877686,-147.3871,55.7,-90.74167,75.725,1
51000,-0.02832031,1.019531,-0.02197266,-2.380371,1.098633,-1.281738,89.3573,0.6207275,-147.3926,17.10833,0.04166667,-0.1333333,1
51260,-0.007324219000000001,1.015625,-0.006347656,1.89209,0.793457,0.5493163999999999,89.30237,0.5328369,-147.5079,17.175,-0.1833333,0.5416667,1
51540,-0.02587891,1.021973,-0.04296875,-3.417969,2.075195,-1.037598,89.65393,0.7196045,-147.8046,17.14167,0.1166667,-0.24166669999999998,1
51870,-0.0390625,1.012207,-0.01269531,-0.5493163999999999,-0.24414059999999999,1.220703,89.57703,0.736084,-147.3761,17.39167,-0.04166667,-0.1333333,1
52180,-0.02539063,1.004395,-0.01806641,-0.24414059999999999,0.3662109,0.0,89.33533,0.7910155999999999,-147.3431,17.28333,-0.2083333,0.2333333,1
52400,-0.002441406,1.032227,-0.01416016,2.929688,-1.8310549999999999,-0.12207029999999999,89.74731,0.8569336,-147.3651,17.66667,-0.325,0.075,1
52630,-0.005371094000000001,1.029297,-0.044921880000000004,0.3662109,0.9765625,0.0,90.10986,0.8569336,-147.5958,17.29167,-0.49166669999999996,0.03333333,1
52840,-0.026367190000000002,0.9951171999999999,0.0004882813,0.8544921999999999,1.342773,-0.7324219,89.52209,0.8239746,-147.1948,55.88334,-90.85,75.425,1
53100,-0.05029297,1.018555,-0.02587891,2.197266,0.5493163999999999,-0.12207029999999999,89.95605,1.010742,-147.3816,17.525,-0.675,0.7916667,1
53310,-0.04785156,1.012207,-0.01464844,-0.24414059999999999,-1.464844,2.380371,90.41748,0.8294678,-147.2278,55.95,-90.54166,76.10833,1
54540,-0.02392578,1.003906,-0.015136720000000001,0.5493163999999999,-0.3662109,-0.42724609999999996,90.09888,0.9063721,-147.3816,55.94167,-90.64167,75.84167,1
54790,-0.004394531,1.015625,-0.03808594,1.8310549999999999,-3.173828,-0.5493163999999999,90.17029,0.8239746,-147.431,17.2,-0.3333333,0.09166667,1
55040,-0.0078125,1.022949,-0.02441406,-0.3662109,3.662109,-0.3662109,90.14282,0.6536865,-147.42,55.81667,-90.775,75.76667,1
55340,-0.022460940000000002,1.028809,-0.01074219,-2.197266,2.868652,1.281738,89.97803,0.6536865,-147.1454,17.11667,-0.35000000000000003,-0.08333334,1
55680,-0.03466797,1.007324,-0.02294922,1.159668,-0.5493163999999999,-0.4882813,90.14832,0.703125,-147.1729,17.36667,-0.425,0.09166667,1
55950,-0.01367188,1.019531,-0.02392578,-0.1831055,-0.7324219,1.098633,90.19226,0.637207,-147.464,55.84167,-90.73333,75.8,1
56220,-0.022460940000000002,0.996582,-0.02978516,0.3662109,-0.24414059999999999,-1.220703,90.20874,0.6536865,-147.3486,17.09167,-0.225,0.008333334000000001,1
56470,-0.017089840000000002,1.005859,-0.03369141,1.281738,-0.5493163999999999,-0.3662109,90.3186,0.7141113,-147.3157,55.70833,-90.525,76.1,1
56760,-0.01220703,1.017578,-0.03320313,0.0,0.0,0.0,90.44495,0.736084,-147.3047,17.41667,-0.5833332999999999,0.1333333,1
57110,-0.03076172,1.015625,-0.02294922,-0.3662109,0.0,0.42724609999999996,90.43945,0.7415771,-147.3981,17.34167,-0.5333333,0.008333334000000001,1
57380,-0.02685547,1.018066,-0.02978516,0.0,0.0,0.12207029999999999,90.45044,0.7635498,-147.3651,17.35833,-0.5416667,-0.025,1
57750,-0.01953125,1.02002,-0.03369141,0.1831055,-0.3051758,0.1831055,90.38452,0.7415771,-147.3486,55.85,-90.425,76.20834,1
58020,-0.01464844,1.02002,-0.03369141,-0.1831055,0.42724609999999996,0.24414059999999999,90.36255,0.7196045,-147.3212,17.36667,-0.5166666999999999,-0.03333333,1
58260,-0.01806641,1.015625,-0.02929688,-0.24414059999999999,0.42724609999999996,0.06103516,90.28015,0.6921387,-147.2498,17.33333,-0.5416667,-0.03333333,1
58470,-0.015625,1.016113,-0.03173828,-0.42724609999999996,0.4882813,0.1831055,90.15381000000001,0.6591796999999999,-147.1674,55.69167,-90.475,76.05,1
58700,-0.01269531,1.013672,-0.02783203,0.9155272999999999,0.1831055,1.7700200000000001,90.20325,0.4779053,-147.0795,17.36667,-0.45,0.125,1
58950,-0.01025391,1.020508,-0.046875,4.394531,-2.929688,4.577637,90.90637,-0.28564449999999997,-147.7551,55.25834,-90.66666,76.5,1
59200,0.01171875,1.026367,-0.03369141,0.0,1.037598,1.098633,91.35132,-0.7141113,-147.9474,17.1,-0.7583333,0.01666667,1
59480,0.01416016,1.010254,-0.05859375,-4.638672,-0.6103516,-3.723145,91.0437,-0.01098633,-148.0573,55.76667,-90.25,76.325,1
59740,-0.05908203,1.026367,-0.01611328,-6.347656,4.455566,-6.896973,89.9176,1.065674,-147.5629,16.86667,0.05833333,0.0,1
59970,-0.06933594,1.013672,-0.02929688,3.90625,4.760742,-0.9155272999999999,90.65918,2.351074,-147.0245,57.0,-89.525,76.68333,1
60270,-0.05029297,1.006836,-0.06542969,2.01416,2.929688,1.159668,91.56555,2.301636,-146.3159,16.69167,-1.275,0.1416667,1
60510,-0.05371094,1.012207,-0.04150391,-8.483887,-3.540039,3.4790039999999998,90.9668,1.6479489999999999,-146.5906,17.50833,-0.65,-0.3416667,1
60780,-0.02392578,1.009277,-0.0078125,-2.13623,0.6713867,-0.06103516,89.76929,1.19751,-147.0355,56.1,-90.23333,76.08334,1
61050,-0.02587891,1.016602,-0.02441406,-0.9765625,1.6479489999999999,-0.4882813,89.63196,1.3348389999999999,-147.1893,17.475,-0.30000000000000004,-0.125,1
61340,-0.03515625,1.031738,-0.02685547,-0.9765625,0.9155272999999999,-0.5493163999999999,89.57703,1.609497,-147.2443,17.65833,-0.48333329999999997,0.1833333,1
61600,-0.04296875,1.016113,-0.04736328,-22.88818,-5.981445,-7.141113,88.23669,2.268677,-147.3431,57.33333,-90.575,74.55,1
61920,-0.20996089999999998,0.9418945,0.3833008,-77.51465,13.79395,-25.63477,70.65857,8.85498,-145.9808,16.56667,7.433333,-7.866667,1
62160,-0.3134766,0.8354492,0.5234375,-32.34863,4.699707,-9.643555,59.6283,13.54614,-146.5851,14.14167,9.908334,-2.233333,1
62370,-0.1928711,0.8989258,0.5727538999999999,3.845215,6.9580079999999995,17.51709,56.19507,12.99133,-145.3162,64.29166,-91.95,49.96667,1
62600,-0.140625,0.7436522999999999,0.38818359999999996,45.95947,16.72363,23.13232,63.26477,10.82153,-140.4327,11.54167,5.366667,5.608333,1
62880,-0.2431641,0.8671875,0.2851563,30.45654,12.20703,18.67676,71.05957,8.239746,-136.3898,16.65,3.883333,2.65,1
63090,-0.1542969,0.8193359,0.21386719999999998,14.28223,-2.807617,13.91602,75.15198,5.570068,-134.0881,17.00833,1.475,2.841667,1
63320,-0.03955078,1.080566,0.02832031,6.286621,-0.9765625,2.685547,79.38721,1.224976,-137.1259,20.34167,3.0,3.416667,1
63600,-0.1020508,1.148926,0.1489258,-8.056641,35.27832,7.507324,84.74854,2.158813,-125.6616,47.54167,-94.14167,75.81667,1
63860,-0.002441406,0.8554687999999999,0.04833984,-8.666992,47.18018,2.929688,82.35352,1.73584,-117.9712,17.73333,1.941667,1.266667,1
64140,-0.1499023,1.081543,0.2426758,-8.972168,38.69629,8.300781,83.45215,3.570557,-106.3147,37.66667,-95.79166,77.39167,1
64440,-0.265625,0.9165038999999999,0.1074219,-1.89209,-7.019043,2.319336,82.51282,5.108643,-98.7561,15.90833,-0.275,1.158333,1
64740,-0.14697269999999998,1.151367,-0.08642578000000001,23.68164,-8.544922,-1.586914,85.0946,3.982544,-103.0957,16.4,3.041667,1.691667,1
65010,0.06542969,0.9091796999999999,0.05322266,-14.16016,22.58301,14.5874,87.37427,3.823242,-98.5199,34.43333,-95.03333,80.35,1
65280,0.04541016,0.9624022999999999,-0.01220703,9.460449,31.37207,-12.08496,86.74805,4.059448,-93.2959,21.83333,-4.316667,1.066667,1
65570,0.001464844,1.078613,0.1318359,-6.591797,-15.01465,-12.63428,86.67114,1.763306,-96.27319,14.65,1.433333,-1.483333,1
65850,-0.2104492,0.9975586,-0.01318359,0.0,-21.30127,22.03369,83.89709,1.8457029999999999,-97.43774,21.16667,-3.65,2.666667,1
66190,-0.017089840000000002,1.195801,0.08544922,-9.94873,24.78027,16.11328,88.90686,2.389526,-92.94983,13.6,0.9916666999999999,-2.458333,1
66490,-0.026367190000000002,1.292969,0.04638672,8.850098,41.87012,-12.93945,88.78601,2.406006,-78.78845,24.06667,-1.15,-0.8416665999999999,1
66720,0.06201172,0.8046875,0.2895508,1.281738,-25.02441,21.78955,88.49487,0.7525634999999999,-77.84363,16.19167,1.125,-0.6666667,1
66940,-0.08544922,0.8120117,-0.06982422,6.530762,-18.12744,19.04297,87.39624,1.713867,-79.50256,21.475,-96.175,79.01667,1
67180,-0.06445313,1.008301,0.05810547,37.71973,-11.53564,1.6479489999999999,91.70837,0.2362061,-81.65039,21.51667,-93.81667,82.75833,1
67460,0.05029297,0.7929687999999999,-0.07910156,-11.47461,10.00977,-7.568359,91.41724,0.5493163999999999,-76.11328,14.75,-1.9000000000000001,1.091667,1
67710,0.2436523,1.242676,-0.46728519999999996,12.20703,-24.84131,12.08496,92.87292,2.493896,-73.60291,21.94167,4.55,-5.6,1
67930,-0.03222656,1.053223,0.07910156,7.263184,-6.04248,-18.9209,90.52185,0.604248,-74.88831,13.53333,0.075,-1.55,1
68160,0.08935547,1.258301,-0.1835938,3.2958979999999998,-21.11816,7.324219,89.54407,0.5438232,-76.745,18.66667,-95.89167,79.05,1
68430,0.1074219,0.8867187999999999,0.04199219,-9.094238,28.62549,12.63428,91.06567,1.148071,-72.78442,16.75833,-95.43333,78.79166,1
68730,0.0078125,0.7919921999999999,-0.07128906,20.99609,22.46094,-21.48438,88.81348,1.543579,-66.17615,19.25,-3.775,1.791667,1
69140,-0.05615234,0.8095703,-0.028808590000000002,-9.94873,-19.83643,1.464844,87.03918,2.867432,-69.82361,17.33333,-97.45,76.00833,1
69450,0.3120117,1.22168,0.3188477,35.33936,24.96338,-31.31104,90.87341,1.6754149999999999,-73.43811,18.90833,0.6833332999999999,-0.9666665999999999,1
69780,0.01074219,0.7700195,-0.06494141,3.662109,13.06152,-20.01953,89.18152,1.428223,-66.24207,15.50833,-95.45834,78.025,1
70050,0.05126953,1.094238,0.1777344,-8.361816,-25.26855,14.34326,89.48914,0.45593259999999997,-65.86304,14.71667,-95.425,77.15,1
70340,-0.1401367,0.8740234,-0.02587891,5.7983400000000005,-28.13721,23.4375,85.73181,1.604004,-67.54395,15.81667,-96.34167,76.36667,1
71630,0.04296875,1.0698239999999999,0.33251949999999997,44.6167,13.3667,-5.981445,89.79126,1.538086,-68.55469,16.28333,-94.65833,79.15833,1
71930,0.07128906,0.8881836,-0.03955078,-6.103516,26.67236,13.73291,90.21423,1.829224,-64.09424,13.375,-1.208333,-1.008333,1
72240,0.2768555,1.266602,-0.2753906,16.41846,2.990723,14.09912,92.35657,3.3673100000000002,-59.26025,13.04167,4.283333,-4.641667,1
72450,-0.07177734,0.7973633,0.03955078,-4.882813,-10.55908,-11.96289,89.54956,1.636963,-64.08875,13.98333,-95.49167,76.6,1
72710,0.11474609999999999,1.1166989999999999,-0.1386719,5.981445,-35.09521,3.662109,88.67615,0.49438479999999996,-68.32947,17.63333,1.5,4.266667,1
72950,-0.1000977,1.131348,0.10888669999999999,-10.19287,3.051758,-20.62988,91.61499,3.059692,-68.20862,15.11667,0.8333332999999999,-1.4,1
73170,0.05126953,0.840332,-0.11474609999999999,9.94873,19.34814,-21.3623,87.63794,4.317627,-65.88501,16.93333,-96.95,76.25833,1
73420,-0.41992189999999996,1.275391,0.2900391,-13.97705,-4.882813,21.11816,89.0332,4.262695,-63.68774,17.65,2.633333,0.7416667,1
73670,-0.14697269999999998,0.8349609,0.01074219,-11.71875,-11.2915,7.751465,86.31958,3.208008,-67.08252,16.19167,-97.26667,75.55,1
73940,-0.09326172,1.27002,0.05517578,42.60254,4.760742,-11.71875,89.25842,1.598511,-70.71899,20.74167,2.316667,-0.2666667,1
74180,0.03955078,0.7216796999999999,-0.02929688,-6.774902,14.46533,-5.67627,89.85718,2.301636,-65.8136,15.275,-95.5,78.4,1
74470,-0.4326172,1.237305,0.253418,-27.9541,-3.845215,25.08545,91.99951,3.186035,-63.04504,14.75,-95.41666,78.025,1
74720,-0.1113281,0.8706054999999999,0.01855469,-15.44189,-10.98633,-10.37598,89.90112,2.213745,-65.4126,13.4,0.03333333,-1.725,1
75000,0.03173828,1.3041989999999999,-0.09619141,17.7002,14.52637,-7.019043,89.8407,0.4998779,-72.46033,16.55833,-94.55,80.34167,1
75300,0.08984375,0.8173828,-0.01318359,-14.70947,33.93555,6.469727,91.43372,0.8734130999999999,-69.7522,12.8,-1.758333,0.375,1
75610,-0.03857422,0.9916992,0.12695309999999999,-3.78418,9.155273,7.995605,92.64771,2.850952,-64.79736,14.90833,-95.19167,78.28333,1
75920,-0.09277344,0.8256836,-0.06787109,-11.04736,-10.13184,3.540039,89.36829,2.037964,-66.45081,16.33333,-0.9833333999999999,1.491667,1
76250,0.1054688,1.229492,0.2675781,30.0293,22.70508,-44.92188,94.47693,1.889648,-69.80164,18.88333,0.5583332999999999,-0.5916667,1
76560,-0.009765625,0.7592772999999999,-0.09814453000000001,1.281738,16.47949,-19.59229,93.57605,1.785278,-62.49573,21.64167,0.31666669999999997,-1.858333,1
76800,0.1210938,1.037109,0.168457,0.9765625,-18.61572,17.94434,92.92786,0.02197266,-63.58887,13.05833,-95.05,76.55833,1
77040,-0.0390625,0.7851562999999999,-0.09082031,-6.774902,-28.68652,3.540039,91.25793,2.021484,-66.14868,16.29167,-1.125,-0.30000000000000004,1
77280,0.25488279999999996,1.161133,0.3188477,26.30615,5.371094,-33.44727,95.10864,1.153564,-71.66382,16.65833,-94.59167,80.06667,1
77510,0.109375,0.8227538999999999,0.0,-13.91602,51.26953,8.361816,94.08691,0.8074950999999999,-66.50024,13.43333,-0.425,-0.1,1
77790,-0.05957031,1.327148,-0.09082031,1.342773,16.29639,-12.63428,95.61951,2.6696779999999998,-60.84229,16.925,0.3333333,-0.36666669999999996,1
78010,0.02197266,1.1010739999999999,0.1948242,-13.3667,-16.17432,31.73828,93.5321,-0.604248,-61.82556,15.83333,0.35000000000000003,-1.375,1
78230,-0.001464844,0.8881836,-0.08544922,11.71875,-28.86963,18.79883,93.69141,-0.0769043,-66.59363,20.06667,-5.625,2.241667,1
78490,0.2919922,1.20752,0.2504883,34.66797,5.310059,-25.93994,97.80579,-0.2252197,-67.8241,20.40833,-0.275,0.6333333,1
78710,-0.002929688,0.7646484,-0.08642578000000001,4.516602,7.385254,-14.28223,96.67419,-0.38452149999999996,-58.60657,19.75833,-1.225,0.15833329999999998,1
79020,0.08007813,0.8666992,0.203125,-19.04297,-19.53125,30.39551,97.08069,0.3405762,-58.85376,11.125,-93.525,77.09167,1
79320,0.01464844,0.7817383,-0.10107419999999999,-2.685547,-24.71924,17.15088,95.92712,1.384277,-65.3302,14.25,-94.28333,78.075,1
79590,0.09375000000000001,1.255371,0.1538086,42.17529,-7.995605,-2.075195,98.41003,1.268921,-70.24658,21.61667,0.01666667,-0.425,1
79840,0.028808590000000002,0.8134766,-0.09375000000000001,-9.216309,9.277344,-7.446289,98.04749,0.19226069999999998,-66.54419,14.475,-93.00833,79.81667,1
80130,-0.38818359999999996,1.262207,0.17431639999999998,-44.06738,-9.94873,35.09521,98.64624,0.9558105,-64.75891,18.54167,0.24166669999999998,0.9,1
80460,-0.06738281,0.7607421999999999,-0.10693359999999999,-5.065918,-14.34326,9.94873,96.44348,1.5325929999999999,-66.12671,19.725,-2.416667,-0.9666665999999999,1
80760,-0.2109375,1.174316,0.04638672,-2.197266,6.408691,-17.94434,99.35486,2.488403,-68.74695,15.29167,-0.625,0.425,1
81120,-0.1123047,1.051758,-0.28564449999999997,7.629395,-38.39111,-8.911133,98.92639,1.999512,-62.46277,15.0,-92.925,78.24167,1
81380,-0.06347656,1.088379,0.10693359999999999,5.554199,-13.42773,-11.71875,97.05322,-0.02197266,-64.39636,13.01667,-0.5583332999999999,-0.7166667,1
81640,0.01806641,0.7485352,-0.1254883,-14.77051,-22.03369,10.98633,96.09741,2.807007,-69.0271,20.84167,-3.333333,1.3,1
81840,-0.2568359,1.143555,0.08349609,-3.540039,10.74219,-19.71436,99.14612,3.581543,-71.46057,19.70833,-92.75833,80.16666,1
82120,0.01611328,0.7495117,-0.06787109,-11.77979,28.07617,-4.394531,97.69043,2.070923,-68.42285,13.73333,-3.658333,2.516667,1
82340,-0.5283203,1.342285,0.1489258,-48.9502,10.00977,31.92139,99.82178,2.367554,-65.23132,17.49167,0.7666666999999999,0.17500000000000002,1
82640,-0.08984375,0.7617187999999999,-0.1020508,-8.605957,-0.42724609999999996,12.3291,96.09741,1.834717,-65.30273,16.25833,-93.725,76.25833,1
82940,-0.07861328000000001,1.226563,0.08886719,-15.19775,-4.272461,-13.06152,99.73389,3.03772,-65.77515,14.79167,-0.3833333,-0.6666667,1
83250,0.1733398,0.8920897999999999,-0.2265625,16.41846,1.6479489999999999,-18.43262,98.75061,2.839966,-65.10498,17.94167,-93.25833,78.09167,1
83550,-0.0390625,1.049805,0.060546880000000004,1.403809,0.4882813,-13.5498,96.71814,0.4229736,-67.52747,17.09167,-93.29166,77.6,1
83840,0.1601563,1.230957,-0.24072269999999998,9.216309,5.92041,-2.868652,95.31738,0.7305908,-72.13623,18.04167,-93.575,77.44167,1
84120,-0.01367188,1.216309,0.06738281,-4.455566,2.563477,10.62012,98.22876,2.015991,-68.93921,14.51667,-0.6833332999999999,-1.15,1
84360,-0.07373047,1.255371,-0.06982422,-2.319336,26.55029,-16.47949,99.8877,2.400513,-63.85803,24.225,-0.5416667,-2.875,1
84680,-0.2089844,0.9882812999999999,-0.01367188,-4.699707,-12.57324,-18.67676,96.77856,0.0769043,-64.11621,13.03333,-0.275,-1.766667,1
84990,0.05859375,1.180176,-0.3212891,6.530762,0.42724609999999996,-0.06103516,95.89417,0.1702881,-70.00488,21.15833,5.65,2.4,1
85320,0.1020508,0.7832030999999999,-0.01220703,-17.39502,24.4751,12.63428,96.66321,1.779785,-69.22485,11.975,-1.1,0.7583333,1
85630,0.22998049999999998,1.4887700000000001,-0.28125,22.03369,-17.57813,4.760742,98.87146,3.834229,-65.72021,13.45,3.516667,-3.25,1
85860,-0.09570313,0.8178711,-0.011230470000000001,-4.394531,-41.68701,-10.92529,93.67493,2.598267,-71.01563,20.74167,-94.275,75.775,1
86110,0.09912109000000001,1.151367,-0.1367188,6.896973,-25.57373,5.249023,93.69141,1.296387,-78.25562,21.55,5.533333,6.116667,1
86350,0.02929688,1.310547,0.11621089999999999,-8.789063,-14.52637,1.098633,96.89392,2.817993,-79.51355,14.45,-0.075,-1.208333,1
86550,0.29443359999999996,0.9262695,-0.2685547,22.09473,31.18896,-16.6626,96.89941,1.801758,-76.34399,22.93333,-92.48333,78.93333,1
86790,0.09130859,0.9472655999999999,0.2041016,1.159668,-31.73828,21.11816,95.80078,0.45593259999999997,-76.72302,16.55833,1.55,-0.5416667,1
87080,-0.05224609,0.7587891,-0.06347656,-2.624512,2.807617,10.37598,91.91711,1.71936,-75.95947,22.9,-93.825,76.71667,1
87360,-0.1474609,1.023438,0.1015625,6.286621,-10.37598,-12.81738,96.5863,2.477417,-78.44788,25.1,-92.04166,79.90833,1
88650,0.007324219000000001,1.097656,0.05615234,-1.89209,-4.272461,14.5874,95.42725,4.21875,-96.58081,13.991670000000001,-0.24166669999999998,-0.525,1
88880,-0.007324219000000001,1.292969,-0.04003906,2.13623,13.91602,-18.24951,96.38855,4.449463,-95.97107,36.55,-90.65833,82.54166,1
89190,-0.09375000000000001,0.9335937999999999,0.09423828000000001,-9.887695,-11.71875,-12.81738,92.84546,1.582031,-100.9589,36.85,-92.41666,79.70834,1
89450,-0.09375000000000001,0.7851562999999999,-0.01269531,-2.075195,-13.06152,16.54053,90.90637,2.993774,-104.6118,21.58333,-3.35,1.675,1
89700,-0.01855469,1.201172,0.09863281,-1.281738,7.019043,-12.3291,95.65796,3.636475,-105.2985,39.88334,-90.575,81.58334,1
90000,0.01074219,0.8276367,-0.16259769999999998,22.70508,1.342773,-22.27783,95.13611,2.109375,-100.3162,21.69167,-5.975,1.466667,1
90310,0.022460940000000002,1.1948239999999999,0.1572266,21.24023,-21.30127,-6.164551,94.22974,-0.302124,-104.0405,38.00834,-91.29166,81.01667,1
90620,-0.12060549999999999,1.126953,-0.1474609,7.446289,-20.01953,19.59229,94.27917,1.461182,-110.7642,23.375,-2.241667,1.725,1
90950,0.10058589999999999,1.077637,0.0234375,-0.9765625,8.483887,16.96777,96.78406,2.301636,-110.1819,14.40833,-0.6000000000000001,-0.8833333,1
91260,-0.246582,1.123535,-0.04394531,4.150391,1.586914,-21.05713,99.19006,4.570313,-104.101,17.81667,-1.283333,-0.03333333,1
91500,-0.1577148,0.980957,-0.01904297,-3.78418,-4.699707,-7.202148,96.89941,2.27417,-106.6718,42.06667,-89.525,82.65833,1
91730,-0.02050781,0.8437500000000001,-0.1630859,-2.13623,-34.05762,14.46533,95.43823,4.020996,-113.0658,18.875,-1.5833329999999999,0.25,1
91980,-0.08544922,1.253418,-0.1098633,8.972168,25.81787,-4.821777,96.31714,3.015747,-114.8676,18.75,1.408333,0.1916667,1
92190,0.13134769999999998,0.809082,-0.08935547,-7.263184,19.16504,2.01416,94.91638,2.059937,-115.4993,45.80833,-90.8,80.675,1
92430,0.03271484,1.195313,-0.3320313,12.57324,-17.63916,4.333496,97.75635,3.328857,-111.4838,23.18333,2.9,-5.325,1
92700,-0.056640630000000004,1.152832,0.08349609,-1.342773,1.525879,-9.216309,95.21301,0.2307129,-112.5494,12.991670000000001,0.6916667,-1.316667,1
92930,-0.1831055,1.1533200000000001,-0.13476559999999999,6.408691,-35.15625,14.89258,93.82874,1.312866,-114.3402,21.06667,-2.008333,3.108333,1
93190,-0.19775389999999998,1.162598,0.1518555,-2.380371,32.34863,-24.6582,97.65198,1.9885249999999999,-114.0106,16.025,0.30000000000000004,-0.04166667,1
93410,-0.02539063,0.7895508,-0.1113281,7.873535,11.90186,-19.65332,95.89417,0.9887695,-107.1661,41.45833,-89.68333,84.15,1
93690,-0.01904297,1.149902,0.05566406,-8.361816,5.615234,8.483887,97.10815,2.1698,-108.2098,18.475,1.858333,-1.941667,1
93930,-0.02832031,0.840332,-0.09277344,0.9155272999999999,-44.25049,-3.234863,92.96631000000001,3.169556,-116.3892,47.38334,-91.04166,80.98333,1
94220,0.11279299999999999,1.250488,0.19726559999999999,21.42334,3.112793,-11.2915,96.36658,2.268677,-123.3215,19.74167,1.625,-0.8166667,1
94530,0.07519531,0.7612304999999999,-0.05957031,3.2958979999999998,-9.94873,-10.62012,93.64746,2.059937,-124.8047,50.44167,-90.10833,80.55833,1
94830,-0.03271484,1.013672,0.2514648,-4.455566,-39.30664,26.18408,94.14734,2.724609,-128.0182,52.14167,-90.275,79.2,1
95120,0.00390625,0.7509766,-0.1298828,11.41357,-33.20313,23.74268,93.55957,1.856689,-137.3676,55.3,-90.475,76.61667,1
95410,0.11621089999999999,1.102051,0.10644529999999999,39.67285,-8.056641,-0.42724609999999996,96.27869,0.5053711,-139.8065,20.76667,0.975,-0.4666667,1
95700,-0.0034179690000000003,0.7446288999999999,-0.07519531,-4.394531,13.12256,-4.333496,95.26245,1.142578,-135.9723,14.9,-2.0,0.9333332999999999,1
95910,0.2338867,1.214355,-0.41259769999999996,11.41357,-34.60693,-4.02832,97.05872,3.9990229999999998,-135.8569,20.18333,3.975,-5.825,1
96120,-0.03759766,1.080078,0.13476559999999999,-5.432129,-7.629395,-1.708984,94.92188,1.230469,-137.7521,14.0,-0.44166669999999997,-0.9916666999999999,1
96330,-0.05029297,0.8007812999999999,-0.09130859,-8.178711,-25.02441,-0.6713867,92.99377,3.070679,-141.416,18.8,-2.325,1.075,1
96550,-0.11865229999999999,1.120117,0.1733398,10.62012,27.28271,-17.51709,96.27869,2.537842,-141.1853,57.79167,-89.23333,75.65833,1
96770,0.06347656,0.8173828,-0.001464844,-10.49805,19.28711,7.446289,94.55933,0.8569336,-139.4604,13.58333,-0.4583333,0.24166669999999998,1
97030,0.026367190000000002,1.26416,0.1137695,4.699707,-5.249023,15.25879,96.90491,2.5872800000000002,-139.7736,57.55,-89.15833,75.75833,1
97290,-0.1323242,0.8647461,0.09619141,-4.821777,-16.29639,-10.0708,93.54309,1.395264,-143.5583,13.90833,-0.7583333,-0.1666667,1
97550,-0.008300781,1.26709,-0.328125,-0.793457,1.525879,-3.2958979999999998,94.12537,1.318359,-152.6221,60.58333,-90.575,69.075,1
97860,0.07080078000000001,0.8007812999999999,0.006347656,-4.638672,30.45654,10.62012,95.23499,2.037964,-146.0962,13.39167,-0.5666667,-0.44166669999999997,1
98160,0.2509766,1.412598,-0.3344727,23.74268,-41.99219,15.07568,96.57532,4.229736,-145.3381,61.15,-88.21667,72.51667,1
98460,-0.05175781,0.7402344,-0.002929688,-5.432129,-16.90674,-5.737305,93.98254,2.471924,-151.0455,14.125,-1.433333,-1.291667,1
98770,-0.02587891,1.20752,0.0009765625,22.03369,10.0708,-9.521484,95.64697,1.367798,-154.3469,61.71667,-89.575,67.95834,1
99080,0.06738281,0.7338867,-0.01367188,-8.056641,4.760742,-2.807617,95.52612,0.7415771,-152.8748,14.64167,-2.966667,1.116667,1
99420,-0.3154297,1.166016,0.18652339999999998,-38.26904,-18.98193,26.12305,95.63599,2.850952,-155.1709,17.5,0.7916667,0.0,1
99690,-0.048828130000000004,0.7592772999999999,-0.1137695,-0.8544921999999999,-1.6479489999999999,15.68604,94.14734,2.460938,-157.1594,20.075,-3.025,1.65,1
100050,0.05029297,0.996582,-0.1098633,9.58252,7.080078,-4.333496,98.60229,1.593018,-156.0498,64.55833,-88.71667,66.95,1
100310,0.030273440000000002,0.921875,-0.2075195,28.13721,21.1792,-28.50342,99.21204,3.35083,-150.8423,24.24167,-7.358333,1.8666669999999999,1
100570,0.08154297,0.6171875,0.22949219999999998,-13.3667,-20.93506,20.93506,97.96509,2.197266,-151.073,18.89167,0.8,-0.5750000000000001,1
100780,-0.05517578,0.6894530999999999,-0.09570313,-5.187988,-22.64404,11.59668,95.86121,2.307129,-153.2703,68.81667,-89.825,66.14167,1
101010,-0.15820309999999999,1.259277,-0.03710938,12.69531,6.713867,1.89209,97.30591,0.9338379,-157.2858,19.13333,2.85,-2.475,1
101250,0.1733398,0.8212891,-0.04394531,-24.10889,40.77148,7.324219,95.18555,-0.1538086,-154.4568,68.39167,-90.725,69.09167,1
101510,-0.02294922,1.28125,-0.08203125,2.807617,30.39551,-16.90674,97.85522,1.312866,-146.4917,26.79167,1.225,-0.275,1
101790,-0.1137695,0.9619141,0.041015630000000004,5.859375,-23.98682,-15.38086,96.06995,-0.5657959,-148.689,66.26667,-86.85,74.075,1
102080,0.1616211,1.211426,-0.1708984,5.126953,-19.89746,9.277344,96.36108,0.6646729,-159.4446,20.35,2.025,4.25,1
102390,0.04589844,0.8393554999999999,-0.01074219,2.01416,13.97705,6.713867,97.49268000000001,2.565308,-157.8076,67.73333,-83.1,71.70834,1
102690,0.2436523,1.156738,-0.3764648,12.93945,-22.58301,12.57324,98.93738,3.696899,-153.3087,23.775,3.175,-5.358333,1
103000,-0.07324219,0.7768554999999999,0.0,-10.68115,-20.87402,-9.033203,95.88318,1.477661,-157.5,64.98333,-82.40833,72.775,1
103290,-0.168457,1.091797,0.09326172,20.20264,-2.563477,-8.666992,96.89941,1.582031,-162.301,61.9,-81.75833,71.55833,1
103580,0.01757813,0.7626953,-0.05224609,-8.422852,33.56934,-10.13184,97.52563,2.455444,-156.319,58.24166,-81.96667,72.475,1
103870,0.2529297,1.396973,-0.3300781,21.11816,-10.62012,17.08984,99.89868,4.685669,-153.5394,14.175,5.091667,-3.766667,1
104130,-0.056640630000000004,0.765625,-0.024902340000000002,-4.333496,-10.31494,-13.30566,95.625,2.570801,-154.7205,14.25,-1.291667,-2.341667,1
104430,0.08447266,1.137207,0.2587891,46.14258,-18.85986,-8.239746,97.49268000000001,1.889648,-157.2748,21.95,2.175,-0.5333333,1
105750,0.12402339999999999,0.8139647999999999,-0.002929688,1.342773,28.19824,5.065918,98.74512,2.010498,-156.9617,13.15833,-1.875,-0.1833333,1
105990,0.2275391,0.9589844,-0.1831055,11.96289,17.76123,-20.75195,99.7229,2.9608149999999998,-152.0947,23.525,-5.816667,1.85,1
106200,-0.06298828000000001,0.9013671999999999,0.2617188,-37.41455,-16.35742,35.52246,98.23425,1.807251,-152.254,18.11667,1.0,-0.1666667,1
106410,0.01367188,0.7524413999999999,-0.105957,-5.981445,-5.92041,15.25879,94.69116,2.27417,-157.901,62.35,-89.15,67.99167,1
106640,0.02832031,1.128906,0.1259766,39.00146,-23.31543,-2.01416,98.23975,0.9887695,-158.8898,22.26667,1.433333,-0.775,1
106890,0.03955078,0.7768554999999999,-0.06152344,-6.164551,21.11816,-12.3291,98.16833,1.2854,-151.073,60.65833,-87.775,73.64167,1
107130,0.2836914,1.283691,-0.3398438,17.8833,-14.16016,7.019043,99.8877,3.543091,-149.3756,12.19167,4.366667,-0.9,1
107420,-0.06738281,0.8310546999999999,-0.015136720000000001,-1.525879,-28.9917,-14.34326,96.38306,1.323853,-152.6221,61.28333,-88.64167,71.26667,1
107710,0.03320313,1.358887,0.1020508,44.86084,-21.72852,-15.625,98.49243,0.7305908,-158.8019,61.83333,-88.725,70.03333,1
107950,0.10839839999999999,0.8740234,-0.030273440000000002,-4.577637,20.32471,4.150391,98.97034,1.686401,-157.912,12.96667,-0.9833333999999999,-0.9333332999999999,1
108240,0.1484375,0.8896484,-0.1259766,10.25391,16.47949,-21.60645,98.80554,2.927856,-153.902,23.08333,-6.016667,2.05,1
108480,-0.07519531,0.921875,0.1000977,-10.37598,-15.31982,-7.568359,96.61926,0.7470703,-156.5662,13.96667,-0.975,-0.1833333,1
108720,0.05029297,1.099121,-0.23730469999999998,6.774902,-8.361816,0.24414059999999999,96.63574,-0.5163574,-162.2186,61.36666,-90.06667,67.3,1
109020,0.04345703,1.261719,0.01611328,3.845215,6.591797,4.089355,100.047,2.680664,-160.5432,13.325,-0.7083332999999999,-1.05,1
109270,0.16650389999999998,1.152832,-0.1230469,13.12256,7.019043,-22.09473,100.5084,3.202515,-155.1434,25.975,-4.033333,-0.7833333,1
109550,-0.0703125,1.020508,-0.015625,0.6713867,-5.554199,-13.5498,97.67944,0.20324709999999999,-158.0933,13.225,-0.5916667,-1.225,1
109880,0.1230469,1.245117,-0.3037109,12.45117,-2.197266,-0.793457,97.03674,-0.45593259999999997,-160.7574,20.79167,5.275,4.066667,1
110190,0.06835938,0.8457030999999999,-0.017089840000000002,-9.643555,27.22168,10.00977,99.3988,1.862183,-158.3624,12.29167,-1.533333,-0.375,1
110430,0.1811523,1.019043,-0.1484375,12.51221,17.39502,-23.74268,99.14612,3.158569,-154.7754,23.2,-6.333333,3.408333,1
110640,-0.11425779999999999,1.060059,0.08642578000000001,-4.455566,-10.25391,-14.70947,96.96533,-0.14282229999999999,-156.7969,60.33333,-88.94167,69.05833,1
110910,-0.024902340000000002,0.7851562999999999,-0.04345703,-24.04785,-11.59668,6.530762,94.422,1.472168,-160.4883,21.05833,-3.725,2.616667,1
111120,-0.0009765625,1.229492,0.1035156,-1.037598,9.887695,-0.06103516,98.66821,2.548828,-159.8511,62.41667,-87.79166,68.64167,1
111360,-0.015136720000000001,0.7426758,-0.08837891,-0.6103516,20.81299,-7.873535,97.76733,0.5987549,-154.6985,15.991670000000001,-2.183333,2.391667,1
111650,-0.36523439999999996,1.053223,0.2583008,-52.79541,2.380371,39.12354,98.31665,0.4833984,-153.2703,59.175,-88.75833,70.425,1
111940,-0.007324219000000001,0.8129883,-0.09716797,-14.16016,-23.98682,9.277344,95.00977,0.9063721,-158.0328,60.80833,-89.1,66.83334,1
112190,-0.1806641,1.165039,0.05322266,40.64941,-5.432129,-11.96289,97.86621,0.269165,-161.488,20.05,1.358333,-0.2833333,1
112470,0.03955078,0.730957,-0.07861328000000001,-3.90625,16.8457,-6.225586,98.83301,1.07666,-158.4009,61.75,-87.41666,69.28333,1
112740,-0.14306639999999998,0.8754883,0.16601559999999999,-19.71436,-8.117676,30.82275,98.90442,0.9173583999999999,-156.9946,61.15,-87.88333,69.40833,1
113030,-0.04003906,0.8588867,-0.03271484,-2.868652,-24.6582,-16.90674,95.82275,1.241455,-159.884,12.975,-1.466667,-0.7416667,1
113280,-0.06884766,1.264648,0.2758789,50.53711,27.70996,-24.78027,98.21228,-0.01098633,-158.8458,61.5,-88.00833,68.79166,1
113550,0.01025391,0.7172852,-0.06542969,-0.793457,16.60156,-7.019043,98.33862,0.03295898,-152.8638,60.41667,-87.90833,71.33334,1
113880,0.06005859,0.8081054999999999,0.2851563,-13.79395,-23.01025,27.52686,98.14087,0.04394531,-151.9739,60.06667,-88.28333,70.91666,1
114170,0.0,0.7080078,-0.08496094,2.197266,-30.88379,12.3291,94.74609,1.4556879999999999,-156.2201,22.04167,-2.65,1.358333,1
114540,0.03173828,1.182129,0.1181641,-5.554199,13.85498,-3.967285,98.60779,2.532349,-158.5822,13.30833,0.03333333,0.5750000000000001,1
114730,0.028808590000000002,0.7509766,-0.06640625,5.065918,13.12256,-13.06152,98.45947,1.867676,-156.2695,15.625,-2.45,2.691667,1
114940,0.2236328,1.505859,-0.3500977,26.67236,-0.3051758,15.01465,102.2058,3.872681,-154.8798,13.575,2.483333,-0.8666667,1
115140,-0.1435547,1.039063,-0.01904297,-7.873535,5.004883,-3.173828,99.47571,0.2911377,-154.4623,13.51667,-1.166667,-1.083333,1
115350,0.2036133,1.1875,-0.1835938,-5.004883,-10.13184,9.216309,98.88245,-0.9777832,-159.3677,61.625,-88.89167,68.525,1
115590,0.01220703,1.295898,0.05371094,-7.69043,4.394531,-6.286621,100.1239,1.472168,-157.7032,14.25,-1.416667,-0.9916666999999999,1
115880,0.1337891,0.9238280999999999,-0.1298828,14.89258,19.16504,-23.01025,100.6458,1.5271000000000001,-150.8752,62.14167,-86.09167,73.75,1
116180,-0.046875,1.071289,0.06933594,1.098633,-30.09033,-6.774902,97.55859,-0.7086182,-155.4675,14.43333,-0.6916667,-0.85,1
116500,-0.007324219000000001,1.2885739999999999,-0.1157227,4.760742,-18.73779,12.51221,97.84424,0.03845215,-165.3772,63.41667,-89.14167,64.34167,1
116820,0.05126953,0.9047852,-0.06396484,3.845215,36.62109,5.615234,100.1733,1.554565,-161.8945,12.93333,-0.7000000000000001,-1.208333,1
117100,0.006835938000000001,1.264648,-0.37255859999999996,18.43262,-34.729,-2.01416,101.0138,3.55957,-156.5387,64.5,-85.51667,70.2,1
117390,-0.04589844,0.8745117,0.022460940000000002,-15.74707,1.098633,-10.0708,97.18506000000001,-0.5712891,-156.731,62.375,-88.4,68.05,1
117660,-0.1054688,0.9594727,-0.07470703000000001,9.887695,-28.44238,17.08984,95.98755,-0.4833984,-159.5435,24.13333,-2.608333,1.291667,1
117920,0.1035156,0.9438477,0.011230470000000001,-7.385254,18.9209,9.033203,99.05823,1.9885249999999999,-158.3679,13.2,-1.25,-1.158333,1
118220,-0.20166019999999998,1.227539,-0.03955078,0.793457,-1.525879,-2.563477,100.47,2.49939,-151.051,22.45,0.5750000000000001,-1.55,1
118530,-0.1103516,0.8676758,0.03662109,-13.73291,-2.01416,-8.728026999999999,96.65222,-0.736084,-153.5449,14.0,-1.766667,-0.2166667,1
118830,0.1362305,1.269043,-0.3452148,4.699707,-16.8457,-3.662109,96.87195,-2.092896,-158.3075,23.425,6.066667,4.783333,1
119190,-0.004394531,0.7011719,-0.08789063,-1.464844,14.77051,-13.00049,97.50366,-0.43396,-150.3204,61.00834,-88.95,71.98333,1
119460,0.2167969,1.5541989999999999,-0.2744141,14.22119,12.75635,7.263184,99.76135,1.609497,-147.8101,14.24167,5.458333,-1.6,1
119710,-0.04736328,0.8237304999999999,0.01269531,-10.37598,-11.53564,-10.0708,95.37781,-0.02197266,-149.9084,61.725,-88.46667,70.01667,1
119940,0.07128906,1.243164,-0.20214839999999998,-0.793457,-38.39111,5.859375,96.38855,-1.016235,-155.3851,18.75,4.583333,3.541667,1
120180,0.005859375,1.271973,0.044921880000000004,-1.403809,-19.22607,-2.502441,99.51965,2.5872800000000002,-156.1926,14.925,-0.8083332999999999,-0.7416667,1
120410,0.1303711,0.9799804999999999,-0.1918945,19.59229,20.20264,-29.54102,100.8765,2.8125,-154.0063,30.86667,-3.241667,-2.108333,1
120720,-0.07763672,0.9853516,0.05810547,-6.591797,-3.2958979999999998,-5.187988,96.85547,0.01647949,-155.528,65.99167,-85.85833,67.95,1
121010,0.1123047,1.286133,-0.1835938,-8.239746,-3.173828,8.789063,96.77307,-1.07666,-159.1754,20.48333,3.758333,4.225,1
121320,0.07958984,0.8085937999999999,0.0,4.272461,31.61621,7.751465,99.34387,0.45593259999999997,-153.3142,65.88333,-84.13333,72.43333,1
122610,0.2202148,0.9072266,-0.2597656,21.1792,15.99121,-25.32959,100.1074,3.103638,-155.061,69.24167,-82.68333,72.725,1
122910,-0.06005859,0.7827147999999999,0.2832031,-20.1416,-36.07178,31.61621,98.39355,1.571045,-156.0608,17.075,1.075,-1.341667,1
123150,-0.06933594,0.8183594,-0.1176758,-3.2958979999999998,-15.31982,13.00049,96.67419,1.104126,-158.9557,68.23333,-86.525,68.86667,1
123420,0.1323242,1.200195,0.08251953000000001,-1.403809,10.62012,6.530762,100.047,2.60376,-159.6313,69.16666,-84.4,71.5,1
123710,0.03564453,0.7436522999999999,-0.0546875,-1.8310549999999999,26.97754,-12.81738,99.37134,0.8789062999999999,-155.3522,19.1,-1.6,1.716667,1
123980,0.01611328,0.7700195,0.27001949999999997,-3.173828,-19.65332,27.09961,99.76135,0.7580566,-154.0997,17.35,0.7416667,-1.916667,1
124240,-0.00390625,0.8486328,-0.1333008,-12.20703,-28.80859,15.74707,95.13062,1.713867,-158.6151,68.29166,-86.8,69.91666,1
124590,-0.2954102,1.303711,0.1015625,-4.638672,16.90674,-21.54541,98.81653,2.411499,-161.5485,14.30833,0.3416667,-0.7083332999999999,1
124790,0.078125,0.7539062999999999,-0.03857422,-7.019043,33.38623,-8.178711,97.30591,0.8843994,-156.7584,15.65833,-2.358333,1.883333,1
125010,0.23779299999999998,1.281738,-0.4331055,5.065918,-4.089355,7.385254,99.47021,2.9608149999999998,-151.7706,20.525,2.683333,-5.291667,1
125220,-0.06884766,0.8520508,0.02197266,-14.52637,8.361816,-7.568359,94.9054,0.9942626999999999,-149.7162,65.68333,-86.65833,76.325,1
125460,-0.0625,1.152344,-0.1210938,23.68164,-43.33496,12.51221,94.54834,0.1702881,-153.9294,24.23333,1.6,4.033333,1
125730,-0.42822269999999996,1.109863,0.04589844,-0.42724609999999996,10.25391,-8.911133,99.15161,1.697388,-154.693,16.9,-1.616667,1.3333329999999999,1
125950,0.05224609,0.6767578,-0.01611328,-16.96777,24.53613,0.24414059999999999,97.89917,0.49438479999999996,-153.5559,14.76667,-2.566667,3.45,1
126170,-0.3369141,1.094727,0.2729492,-31.37207,-8.483887,25.81787,99.11316,0.4614258,-152.5781,18.85833,1.35,-1.233333,1
126440,-0.06640625,0.8002929999999999,-0.056640630000000004,-8.239746,-10.49805,13.18359,95.7074,0.7525634999999999,-155.6543,65.55833,-88.58334,74.35,1
126710,-0.05126953,1.230957,-0.14257809999999999,-1.6479489999999999,41.62598,-11.84082,98.22876,-1.593018,-157.3627,17.93333,1.808333,1.608333,1
126960,0.06494141,0.8530272999999999,-0.07226563,1.708984,46.08154,9.58252,99.77783,-2.373047,-150.5621,60.23333,-88.85833,80.36667,1
127260,-0.08154297,1.409668,0.15087889999999998,-16.05225,-6.652832,12.08496,101.228,-1.713867,-147.7332,59.69167,-89.225,80.56667,1
127530,-0.017089840000000002,0.8012695,0.0004882813,-13.48877,-3.112793,-5.187988,97.20154,-3.092651,-149.6613,14.19167,-1.916667,-0.4,1
127780,-0.030273440000000002,1.181152,-0.25,0.7324219,-11.41357,5.310059,97.64648,-3.378296,-155.1324,60.90833,-93.03333,75.775,1
128070,0.1479492,0.9438477,-0.07910156,-3.90625,30.63965,-3.234863,100.0964,-1.785278,-151.6882,13.375,-1.233333,-0.4583333,1
128390,0.2348633,1.434082,-0.1157227,-23.62061,26.97754,16.78467,101.2061,0.4614258,-145.2887,20.175,0.2916667,1.675,1
128690,-0.2114258,0.7983397999999999,0.008300781,-8.422852,17.76123,-2.990723,95.24597,-2.384033,-136.3568,13.81667,-0.5833332999999999,0.55,1
129060,-0.08154297,1.134277,-0.07910156,1.098633,88.86719,-0.12207029999999999,97.24548,-6.026001,-116.2299,37.7,-91.3,91.68333,1
129320,-0.06152344,0.9404296999999999,-0.08447266,-9.94873,142.334,6.835938,91.14258,-9.624023,-89.86816,15.78333,-1.283333,0.325,1
129570,-0.3320313,1.165039,0.1699219,-42.5415,76.29395,7.873535,85.91858,-6.383057,-57.66174,2.85,-93.21667,73.725,1
129800,-0.16259769999999998,0.9594727,0.02978516,-31.86035,127.6245,-7.080078,82.66663,-1.691895,-37.68311,16.225,-0.8,-1.308333,1
130040,-0.2919922,0.9462891,-0.07080078000000001,-6.04248,62.62207,31.18896,80.55725,-0.33508299999999996,-17.4408,20.875,-2.35,-0.3333333,1
130260,-0.07714844,0.8808594,0.18994139999999998,25.45166,57.67822,20.87402,83.00171,0.0,-2.25769,-2.558333,-91.41666,38.625,1
130520,-0.006347656,0.9814453,0.04296875,-8.850098,80.01709,34.36279,82.85339,-2.04895,13.64502,15.175,-1.083333,0.525,1
130790,-0.1411133,1.411133,-0.04199219,1.281738,4.577637,2.075195,86.28662,-3.493652,27.30103,1.741667,-87.21667,23.4,1
131050,-0.01269531,0.9394530999999999,0.2241211,-13.91602,15.68604,-6.469727,84.88586,-3.834229,26.93848,14.10833,1.5833329999999999,0.6666667,1
131280,-0.144043,0.8334961,-0.05126953,4.516602,-3.4790039999999998,-6.774902,83.79822,-1.367798,30.53101,16.65833,-2.266667,2.025,1
131520,-0.06835938,1.183594,0.2871094,3.356934,4.333496,-20.99609,89.20898,-1.208496,27.99866,14.625,0.9416667,-1.058333,1
131830,0.13134769999999998,0.7856445,-0.01171875,4.943848,-9.58252,-11.90186,87.28088,-2.27417,28.98193,3.608333,-89.48333,25.075,1
132130,0.1992188,1.043945,0.199707,12.63428,-28.56445,18.67676,87.70935,-3.691406,25.24658,14.16667,2.15,-0.5583332999999999,1
132430,-0.060546880000000004,0.9023437999999999,-0.0034179690000000003,8.117676,-32.59277,19.34814,86.74805,-1.09314,19.16016,21.825,-7.625,2.016667,1
132720,0.1679688,0.9213867,0.04003906,-9.765625,5.615234,22.2168,90.3241,-0.5767822,17.677,11.90833,-0.6333333,-0.9916666999999999,1
133050,-0.02929688,1.4248049999999999,-0.11279299999999999,-2.685547,4.150391,-8.544922,90.89539,-0.0604248,22.74719,17.16667,2.608333,0.625,1
133360,-0.1113281,0.7812500000000001,0.08496094,-10.92529,-6.469727,-16.78467,88.6377,-2.120361,19.69849,13.775,-1.55,-0.8083332999999999,1
133590,-0.11621089999999999,0.9370117,-0.024902340000000002,19.65332,-40.83252,19.9585,87.21497,-2.15332,15.01831,26.83333,-1.491667,1.108333,1
133810,0.04638672,0.8056641,0.03955078,-7.263184,19.34814,17.39502,91.23047,-0.7965088,16.74866,-2.866667,-86.75,32.9,1
134040,0.01757813,0.8320312999999999,-0.04931641,6.408691,-3.234863,-14.64844,89.73083,-1.038208,19.38538,22.50833,-2.275,-1.316667,1
134430,-0.07519531,0.7768554999999999,0.07128906,-10.49805,-8.056641,-19.40918,88.03345,-1.488647,16.50146,-3.358333,-85.875,32.63334,1
134670,-0.1137695,1.126465,-0.04443359,2.807617,-30.27344,18.55469,88.40698,-2.329102,11.43677,26.225,-2.258333,3.741667,1
134900,0.02783203,0.8979492,0.04931641,-4.699707,21.42334,18.06641,91.92261,-0.8349609,15.90271,-3.383333,-86.43333,34.95833,1
135180,0.01025391,0.7973633,-0.09570313,0.3662109,0.0,-17.33398,90.47241,-1.257935,19.92371,22.575,-1.0,-1.883333,1
135420,0.04199219,0.9711913999999999,0.1459961,4.760742,-9.033203,1.281738,90.43396,-1.746826,19.21509,-2.291667,-85.775,32.43333,1
135720,-0.09716797,0.9941405999999999,-0.05371094,5.493164,-27.28271,18.06641,88.37402,-1.230469,14.04053,-4.458333,-84.65,35.39167,1
135990,0.03417969,0.9633788999999999,0.1918945,10.25391,6.164551,-28.68652,91.51611,-0.1757813,12.92542,17.70833,1.6,-1.125,1
136240,0.09570313,0.8681641,-0.03955078,-6.04248,0.7324219,-11.41357,89.10461,-1.098633,16.58386,-2.825,-85.41666,34.83333,1
136550,0.01757813,1.054199,0.1650391,-7.629395,8.422852,0.793457,90.08789,-1.851196,16.66077,14.11667,1.791667,-0.725,1
136840,-0.10839839999999999,0.9140625,-0.004394531,2.01416,-14.28223,24.78027,88.08838,-0.269165,16.38062,-2.758333,-84.825,35.21667,1
137180,0.006835938000000001,1.079102,0.1025391,-5.7983400000000005,19.77539,12.146,91.46667,0.9228516,16.81458,13.125,0.4,-0.40833329999999995,1
137490,0.23779299999999998,1.2260739999999999,-0.07421875,18.24951,13.3667,-18.37158,92.93884,0.1702881,20.69275,29.70833,-4.675,1.425,1
137760,-0.01660156,0.9252929999999999,0.12402339999999999,-4.943848,-12.08496,-14.22119,90.42297,-1.4556879999999999,18.33069,14.475,0.5916667,-0.1333333,1
138120,-0.1630859,1.275391,0.1762695,35.21729,34.36279,-25.5127,91.65894,0.2581787,15.85327,-0.7416667,-86.71667,37.45833,1
138380,0.005859375,0.8349609,0.05175781,-9.460449,16.17432,20.75195,91.8512,0.33508299999999996,18.61084,13.21667,-0.7916667,-1.241667,1
139620,0.1157227,0.7529296999999999,0.02734375,-0.24414059999999999,-6.469727,19.47021,90.64819,-0.9118651999999999,18.69873,13.1,-1.658333,-0.7166667,1
139820,0.3295898,1.155762,-0.01367188,20.69092,20.87402,-21.48438,91.77979,0.09887695,19.63806,25.26667,-2.066667,-0.9833333999999999,1
140040,-0.017089840000000002,0.9106445,0.2397461,-16.96777,-13.48877,11.96289,90.63171,-2.026978,17.74292,15.65833,2.316667,1.183333,1
140260,-0.03271484,0.7773437999999999,-0.026367190000000002,1.586914,-4.272461,13.67188,87.66541,0.1263428,17.55615,0.15,-88.125,34.50834,1
140510,-0.048828130000000004,1.119141,0.08544922,33.5083,1.6479489999999999,-13.12256,92.26868,-0.4229736,14.97437,21.68333,1.883333,-0.5583332999999999,1
140740,0.0078125,0.7099609,-0.01269531,-7.995605,17.27295,-5.981445,90.41199,-0.8953857,18.53943,0.7000000000000001,-88.36667,35.41667,1
140990,0.07128906,1.390137,-0.5703125,28.38135,-25.57373,8.850098,91.93909,1.779785,18.2428,22.68333,4.058333,-6.975,1
141270,-0.11083979999999999,0.7963867,0.05419922,-8.483887,4.333496,-16.35742,89.61548,-0.1812744,17.60559,1.741667,-88.175,34.975,1
141560,-0.12744139999999998,1.151855,-0.1303711,12.81738,-37.17041,17.82227,89.10461,-0.9777832,15.04028,24.19167,-0.3416667,2.866667,1
141810,0.06494141,0.9765625,0.07128906,-7.873535,13.85498,15.68604,92.04895,0.4284668,14.21631,13.20833,-0.2333333,-1.266667,1
142080,-0.09667969,1.263672,-0.03369141,-5.126953,2.563477,-9.216309,92.1698,1.054688,18.50647,2.991667,-88.8,36.21667,1
142350,-0.04931641,0.8940429999999999,0.0390625,-8.422852,-1.220703,-16.11328,89.8407,-0.2142334,16.9519,2.191667,-87.7,34.88334,1
142670,0.09082031,1.30127,-0.3374023,16.78467,-3.540039,-8.911133,91.83472,-0.7855225,10.57983,0.7833333,-88.025,39.33333,1
143000,0.05957031,0.7441405999999999,-0.011230470000000001,-7.263184,5.126953,10.0708,92.54883,0.6646729,14.72717,13.64167,-1.508333,-1.158333,1
143340,0.1923828,1.409668,-0.4780273,13.00049,-28.07617,13.73291,93.87268,0.8129883,20.1709,14.29167,4.683333,-5.2,1
143530,-0.0234375,0.9833984,0.1035156,-1.586914,7.080078,-8.911133,91.98853,-1.73584,18.03955,13.70833,0.4583333,-0.4,1
143730,-0.004882813000000001,0.7958984,-0.1137695,-5.737305,-25.57373,4.150391,90.46143000000001,0.4284668,16.51245,19.38333,-1.5833329999999999,0.7333333,1
143940,-0.08496094,1.244629,-0.09228516,16.17432,2.685547,-16.54053,92.82349,0.2581787,12.70569,18.83333,2.075,0.2333333,1
144160,0.0078125,0.8764647999999999,0.030273440000000002,-1.6479489999999999,15.07568,14.46533,93.97156,1.345825,14.65027,12.93333,-0.5666667,-1.116667,1
144360,-0.1850586,1.282227,-0.1445313,0.1831055,-12.146,6.652832,93.52112,1.549072,18.63831,4.2,-89.31667,36.125,1
144600,-0.005371094000000001,1.070801,0.1967773,-9.94873,-4.455566,5.615234,92.34558,-2.905884,17.81982,14.40833,1.4,-2.058333,1
144890,-0.109375,0.8920897999999999,-0.02783203,2.929688,-16.05225,21.1792,90.02197,-0.8184813999999999,12.97485,1.125,-87.05,37.15833,1
145150,0.121582,0.9389647999999999,0.24072269999999998,14.52637,5.92041,-21.05713,93.51563,0.1043701,13.23853,19.725,1.366667,0.4583333,1
145380,0.0004882813,0.8173828,-0.04980469,-10.25391,-6.835938,-5.493164,91.63147,-1.021729,17.40234,3.058333,-88.075,35.99166,1
145680,0.1020508,1.601563,-0.2607422,1.464844,-13.18359,22.70508,93.03223,0.03295898,16.53442,14.025,5.908333,-2.725,1
145920,-0.06884766,0.8198242,0.03271484,-2.624512,-7.69043,-15.44189,90.12085,0.0604248,16.68274,14.09167,-0.8833333,-0.8916666,1
146190,-0.07373047,1.217773,0.11669919999999999,28.13721,8.666992,-18.43262,93.19153,-0.08789063,13.59009,2.85,-88.65833,38.55,1
146460,0.02978516,0.9233397999999999,0.002441406,-4.516602,19.83643,18.55469,94.03198,0.5273438,15.62256,13.24167,-0.9666665999999999,-1.85,1
146710,-0.121582,1.293945,-0.3007813,10.0708,-22.3999,6.9580079999999995,94.04297,1.290894,20.26428,5.391667,-89.4,35.25834,1
147030,-0.1450195,0.809082,0.09619141,-12.57324,-10.0708,-17.57813,91.47766,-0.3515625,17.13318,14.63333,-1.7083329999999999,-0.5333333,1
147350,0.07275391,1.571289,-0.24902339999999998,9.216309,18.00537,-10.55908,91.59302,-0.6756592,11.58508,15.675,2.341667,1.541667,1
147670,0.08154297,0.7802734,-0.0034179690000000003,-6.04248,26.48926,14.28223,92.60925,-0.5108642999999999,17.05078,14.3,-1.125,-0.35833329999999997,1
147900,0.206543,1.1323239999999999,-0.03222656,-13.3667,10.19287,22.33887,93.16406,-0.7141113,19.62158,4.641667,-88.24167,33.79167,1
148140,-0.07568359,0.8803711,0.04003906,-2.807617,7.629395,-21.30127,91.6864,-2.263184,21.11023,13.75833,-1.041667,-0.008333334000000001,1
148380,-0.06152344,0.8393554999999999,-0.01171875,-4.333496,-5.67627,15.07568,90.82397,-0.9832763999999999,18.90747,22.8,-7.675,3.666667,1
148590,0.07617188,1.201172,0.08154297,0.9155272999999999,-0.3051758,14.34326,94.43848,1.4556879999999999,14.88098,4.116667,-89.175,37.03333,1
148830,-0.01806641,0.7714844,-0.04248047,-6.530762,0.3662109,-8.850098,91.88965,-0.8349609,17.27051,22.375,0.0,-0.25,1
149130,0.1333008,0.7910155999999999,0.30224609999999996,2.258301,-23.25439,16.6626,91.82922,-1.241455,15.05127,2.741667,-87.74167,35.16667,1
149400,-0.04638672,0.8618163999999999,-0.0703125,-12.69531,5.493164,18.49365,89.51111,0.5383300999999999,15.32593,3.783333,-87.85833,33.63334,1
149700,-0.0703125,1.181152,0.25537109999999996,43.76221,-3.2958979999999998,-17.08984,93.34534,-0.1812744,15.40833,21.925,1.208333,-0.85,1
149960,-0.01757813,0.7397461,-0.041015630000000004,-5.187988,11.71875,-5.249023,91.47217,-1.3348389999999999,19.86877,16.69167,-0.9666665999999999,1.25,1
150210,-0.1479492,0.8291016,0.3930664,-28.38135,-17.7002,22.76611,92.21924,-1.444702,18.91846,3.283333,-87.75,33.38334,1
150510,-0.11425779999999999,0.7714844,0.03271484,-3.845215,-17.21191,-15.74707,91.22498,0.2087402,17.6825,14.43333,-2.416667,0.5416667,1
150770,-0.056640630000000004,0.9921875,0.02392578,15.68604,-5.615234,-14.34326,93.35632,0.4174805,11.04126,18.425,2.433333,-0.17500000000000002,1
151040,0.07080078000000001,0.7299804999999999,-0.04296875,-14.34326,23.07129,2.441406,92.27417,-0.5218505999999999,12.92542,14.275,-1.625,1.191667,1
151380,-0.22119139999999998,1.200684,0.152832,-25.6958,8.117676,10.92529,92.68616,-0.8679199,13.4198,16.35,2.841667,-1.666667,1
151640,-0.015625,0.8598633,-0.159668,3.540039,-7.080078,3.356934,90.41199,1.016235,13.35388,18.725,-1.9000000000000001,0.625,1
152020,0.02001953,0.9492187999999999,0.01806641,-11.59668,9.033203,19.34814,94.31213,1.928101,11.14563,2.925,-90.125,39.18333,1
152250,0.06787109,0.7485352,-0.06982422,4.02832,10.13184,-9.277344,93.34534,1.038208,11.8927,20.74167,-3.841667,1.3,1
152520,-0.22900389999999998,1.384766,0.1489258,-25.75684,8.300781,21.54541,95.51514,0.1812744,11.11267,17.70833,2.2,-2.658333,1
152730,-0.08398438,0.8027344,0.00390625,-14.5874,26.12305,-20.01953,93.1311,0.4724121,13.7384,14.15833,-1.525,-0.8083332999999999,1
152950,-0.1118164,1.525391,-0.1303711,24.10889,20.69092,-6.713867,94.24622,-1.049194,14.88647,2.416667,-88.825,37.25834,1
153180,0.05810547,0.9912109,0.002929688,-12.81738,20.93506,22.27783,96.09192,0.3570557,15.60608,12.575,-0.5666667,-1.491667,1
153440,-0.05761719,1.262695,-0.04736328,0.6103516,9.94873,-8.422852,96.16333,-0.06591797,20.23132,21.60833,-1.8,-2.05,1
153750,-0.06396484,0.9462891,0.04248047,0.0,0.06103516,-16.8457,94.0979,-1.565552,17.95715,3.433333,-88.425,34.69167,1
154040,-0.04589844,0.8530272999999999,-0.07128906,-5.432129,-21.66748,11.47461,92.71362,0.3900146,14.45801,21.575,-4.225,1.316667,1
154290,-0.1728516,1.209473,0.09765625,0.0,-14.22119,-13.30566,96.23474,1.812744,12.6947,14.13333,0.225,-1.1,1
154570,0.1552734,0.8623046999999999,-0.08691406,-1.159668,16.29639,-19.71436,94.50989,0.4614258,13.67798,4.308333,-89.33334,37.13334,1
154860,0.04443359,1.041016,0.168457,-13.73291,4.211426,-0.7324219,93.71887,-1.576538,14.99634,14.675,0.6083333,-1.758333,1
156150,0.006835938000000001,0.9423828,0.09033203000000001,-1.342773,15.99121,-11.16943,92.05994,-0.9667969,13.88123,13.93333,0.375,-0.4166667,1
156390,-0.048828130000000004,1.243652,-0.2084961,13.06152,-18.43262,14.03809,91.49963,-1.027222,13.7439,18.18333,1.691667,1.5,1
156660,0.09765625,0.8984375,0.02197266,4.089355,9.887695,10.92529,94.19678,-0.5603026999999999,16.29272,3.316667,-89.46667,35.31667,1
156980,-0.2026367,1.273438,-0.2304688,1.403809,-8.117676,-5.187988,93.05969,1.609497,20.2533,5.316667,-90.15833,33.41667,1
157290,-0.11083979999999999,0.8295897999999999,0.05126953,-11.77979,-11.41357,-20.87402,90.76904,0.1538086,18.06702,14.8,-1.883333,-0.7583333,1
157650,-0.08105469,0.9594727,0.21289059999999999,7.629395,22.76611,-26.18408,93.74634,1.323853,12.90344,2.108333,-90.55833,38.08333,1
157880,0.11425779999999999,0.7631836,0.01416016,-11.23047,25.87891,8.911133,92.83997,-0.005493164,14.97437,13.65,-1.491667,-0.2833333,1
158160,0.1533203,1.324219,-0.030273440000000002,-1.220703,15.68604,-20.81299,92.8949,2.252197,17.44629,22.25,-1.725,-2.575,1
158370,0.08691406,0.9545897999999999,0.3300781,-10.37598,-16.17432,23.13232,90.19775,-0.1483154,16.44653,16.625,1.5833329999999999,0.4333333,1
158590,-0.01269531,0.7607421999999999,-0.05517578,0.9155272999999999,-12.45117,21.72852,87.92358,0.9942626999999999,13.70544,1.683333,-89.83334,36.34167,1
158820,-0.109375,1.301758,0.017089840000000002,15.99121,-35.09521,0.3051758,90.88989,0.1263428,9.508666999999999,19.375,2.916667,-0.875,1
159060,0.03271484,0.7495117,0.028808590000000002,-10.49805,43.64014,3.662109,88.69263,-1.461182,17.64404,1.9916669999999999,-88.95834,35.33333,1
159310,-0.1757813,1.433105,-0.3056641,8.483887,-0.12207029999999999,3.845215,90.02197,0.8569336,21.76941,18.58333,4.708333,0.325,1
159590,-0.1655273,0.7797852,0.08349609,-12.39014,6.469727,-22.46094,89.04419,-0.33508299999999996,22.87903,4.658333,-89.64167,33.275,1
159890,-0.08544922,1.269531,0.08886719,-5.432129,29.35791,-14.34326,88.62671,-1.038208,19.45679,17.50833,2.008333,-0.08333334,1
160200,0.1132813,0.7802734,0.01025391,-8.056641,21.54541,10.98633,89.70337,-0.49438479999999996,22.07153,4.208333,-89.175,33.59167,1
160500,-0.18652339999999998,1.453613,0.19384769999999998,-10.68115,11.2915,13.00049,90.15381000000001,0.13732909999999998,24.43359,20.26667,2.633333,0.275,1
160800,-0.01074219,0.8256836,-0.05712891,-1.8310549999999999,-2.868652,-0.06103516,86.91284,0.6756592,25.60913,5.816667,-88.725,30.48333,1
161100,0.15917969999999998,1.14502,0.3476563,16.17432,6.286621,-17.57813,89.53308,-0.4119873,26.52649,6.225,-89.3,30.95,1
161380,0.08886719,0.8159179999999999,0.05322266,-2.502441,14.28223,16.41846,89.73083,-0.5493163999999999,29.71252,11.44167,0.425,-1.375,1
161630,0.44335939999999996,1.374023,-0.3452148,7.629395,-10.43701,10.68115,89.12109,0.9283446999999999,30.39368,8.658334,9.058333,-7.833333,1
161920,-0.06787109,0.6914062999999999,0.12402339999999999,5.493164,-19.40918,-21.11816,86.41846,0.5383300999999999,28.70728,13.89167,-1.008333,-1.766667,1
162270,-0.1035156,0.9692383,0.1098633,23.13232,-30.45654,-7.507324,88.08838,-1.043701,22.48901,20.85,2.266667,0.09166667,1
162480,0.03417969,0.9296875,-0.001953125,-5.554199,-15.68604,2.502441,89.17053,0.38452149999999996,20.72021,11.7,0.9583332999999999,-1.808333,1
162690,0.17822269999999998,1.375488,-0.24853519999999998,-6.835938,-5.310059,30.63965,88.62122,1.807251,20.92896,5.466667,-90.575,33.1,1
162920,-0.03466797,0.9609375,0.06347656,-18.37158,25.45166,-14.4043,87.2644,0.02197266,23.42834,13.01667,0.9166667,-2.925,1
163200,-0.07714844,0.7407227,-0.022460940000000002,-10.37598,18.06641,19.16504,83.91907,1.279907,28.05359,20.55833,-2.9,2.116667,1
163420,-0.1103516,1.25293,0.2119141,7.873535,40.1001,-17.82227,89.77478,1.049194,36.45264,11.4,-90.25833,25.54167,1
163660,0.1298828,0.7749022999999999,-0.1376953,2.01416,28.50342,0.4882813,89.61548,-0.6097412,40.92957,12.65833,-1.141667,0.7083332999999999,1
163890,0.04052734,1.330566,-0.2822266,17.8833,-26.36719,10.92529,92.2522,1.115112,45.28564,16.5,2.141667,-2.033333,1
164110,-0.1157227,0.7211913999999999,0.05322266,-9.94873,29.05273,-17.63916,89.02771,-0.1593018,48.47717,16.41667,-89.63333,20.74167,1
164370,0.0,1.115234,-0.144043,10.37598,-25.26855,21.05713,87.35779,-1.8182369999999999,48.79578,23.11667,-1.891667,0.525,1
164640,0.1103516,0.9907227,0.06982422,-2.624512,25.6958,10.13184,90.86792,0.14282229999999999,49.95483,17.85833,-90.18333,20.725,1
164910,-0.078125,1.297852,-0.04248047,-7.751465,3.112793,-14.5874,90.01648,1.186523,56.83777,21.89167,-90.64167,19.64167,1
165210,0.1152344,1.052246,0.1376953,-11.96289,-13.3667,-1.098633,89.28589,-1.450195,53.45947,14.26667,1.1,-1.308333,1
165460,-0.1542969,0.9599609,-0.01220703,15.38086,-8.056641,26.79443,88.70911,0.2362061,51.44348,17.40833,-89.78333,20.85833,1
165740,0.06445313,0.996582,0.0703125,-6.591797,23.37646,18.9209,92.60376,1.604004,49.60876,13.01667,-0.31666669999999997,-0.7666666999999999,1
166080,-0.08007813,1.2685549999999999,-0.1333008,-5.004883,11.47461,-13.30566,92.92236,1.598511,53.22876,20.35,1.45,0.425,1
166390,-0.09423828000000001,0.8784179999999999,0.07324219,-15.25879,7.69043,-17.21191,90.32959,-1.082153,52.20703,14.71667,-0.2916667,-1.683333,1
166620,-0.05322266,0.7880859,-0.05078125,-2.13623,-1.586914,19.77539,87.61597,-0.7965088,52.7124,23.425,-4.666667,2.275,1
166830,-0.159668,0.9238280999999999,0.2265625,1.464844,26.67236,-4.394531,91.29639,0.03295898,53.38257,19.875,1.058333,-0.05833333,1
167050,0.1103516,0.7446288999999999,-0.02587891,7.751465,26.85547,-3.112793,91.59302,-0.9393311,57.06848,21.35833,-91.725,22.725,1
167280,0.25488279999999996,0.9921875,0.05322266,-13.00049,-0.8544921999999999,16.35742,92.34558,-0.4394531,60.54016,16.94167,4.391667,1.925,1
167520,-0.005859375,0.8012695,-0.015625,-6.469727,-2.502441,-6.103516,90.42847,-0.46691889999999997,62.30347,23.78333,-91.225,21.35833,1
167770,0.046875,1.270996,-0.26220699999999997,19.59229,-10.80322,5.004883,90.78552,-2.340088,61.073,19.03333,4.8,1.475,1
168060,0.06884766,0.8598633,-0.002929688,-14.34326,52.67334,17.27295,92.10388,-0.7635498,69.32373,27.725,-91.55833,21.275,1
168350,0.08496094,1.303223,-0.3852539,20.38574,-27.58789,1.403809,92.36206,1.3348389999999999,77.31079,23.15833,2.8083329999999997,-4.616667,1
168660,-0.1210938,0.8701171999999999,0.04443359,-3.662109,-12.63428,-18.06641,90.90088,-0.8734130999999999,75.66284,30.56667,-90.825,20.3,1
168960,0.01269531,1.324219,-0.22998049999999998,10.25391,-2.319336,-3.234863,91.04919,-1.016235,67.29675,15.28333,4.233333,1.733333,1
169270,0.10498049999999999,0.8266602,0.01904297,-4.943848,37.65869,12.57324,92.68066,-0.09887695,72.43835,29.98333,-91.79166,21.98333,1
169560,0.27880859999999996,1.222656,-0.1098633,-17.82227,-3.112793,26.30615,94.34509,1.065674,75.54749,32.325,-92.40833,22.43333,1
169830,-0.04638672,0.9047852,0.07275391,-4.760742,-2.13623,-9.094238,91.4502,-1.543579,75.30029,14.71667,-0.4666667,-0.325,1
170090,0.1484375,1.164551,-0.09472656,10.25391,-9.765625,9.887695,90.6427,-2.191772,72.1637,24.725,1.533333,5.091667,1
170400,0.02050781,0.8671875,0.06396484,-8.239746,20.75195,14.89258,93.05969,0.28564449999999997,77.71729,13.30833,-1.125,-0.5,1
170700,-0.03320313,1.211914,-0.3984375,15.44189,-31.49414,6.591797,94.57581,1.582031,83.32581,26.70833,4.041667,-5.683333,1
171040,-0.09326172,0.8398437999999999,0.06591797,-8.117676,-8.666992,-14.09912,91.43921,-0.28564449999999997,81.52405,12.95,-1.858333,-0.9166667,1
171280,-0.1054688,1.45752,-0.1103516,0.5493163999999999,25.63477,-12.57324,92.68066,-1.367798,76.71204,32.28333,-91.725,21.425,1
171510,0.008789063,1.056152,0.07421875,-0.5493163999999999,26.9165,12.63428,94.20227,0.6646729,79.43665,13.741670000000001,-0.5083333,-0.625,1
171750,-0.03466797,1.240723,-0.05029297,-5.493164,21.1792,-13.91602,94.97131,1.3348389999999999,88.75305,40.50834,-92.53333,23.49167,1
172980,0.07421875,1.28418,-0.3447266,0.3662109,-5.981445,-0.12207029999999999,94.64172,-1.109619,96.16333,43.04167,-93.24167,24.61667,1
173220,0.1381836,1.04541,0.2280273,-4.333496,9.58252,5.432129,92.68616,-3.669434,95.17456,14.55,1.566667,-2.283333,1
173500,-0.1567383,0.9277344,-0.03515625,9.82666,-10.55908,18.73779,90.19775,-0.9942626999999999,98.28369,44.18333,-91.625,22.59167,1
173770,-0.03564453,1.03125,0.1992188,17.21191,20.08057,-8.911133,93.96057,-0.5383300999999999,97.88818,19.975,2.125,0.5083333,1
173990,0.03271484,0.8017578,-0.04833984,-9.155273,26.67236,0.1831055,92.83997,-2.340088,105.4523,14.96667,-0.5416667,3.375,1
174300,-0.1987305,1.108887,0.09277344,-8.911133,5.615234,2.258301,94.32312,-1.5271000000000001,109.1876,49.775,-93.40833,27.63333,1
174590,0.06201172,0.8950195,-0.09814453000000001,-1.098633,-36.68213,-10.86426,91.79077,0.1483154,102.5299,15.26667,-0.2916667,-1.008333,1
174960,-0.01025391,1.157227,0.159668,30.70068,13.24463,-16.47949,93.88916,-0.2581787,99.73389,19.45,2.008333,1.1,1
175200,0.01611328,0.8037109,-0.05078125,-6.04248,2.13623,3.417969,93.0542,-1.027222,106.1389,49.43333,-93.51667,26.84167,1
175470,-0.09814453000000001,1.325195,-0.3051758,5.065918,-18.24951,10.80322,94.36157,0.8074950999999999,105.8862,17.9,1.483333,1.808333,1
175730,-0.05175781,0.9321288999999999,0.04833984,-6.225586,5.981445,-13.00049,93.36731,-2.37854,104.3372,15.175,-1.425,-1.016667,1
176050,-0.07226563,1.456543,-0.315918,12.87842,-11.71875,-11.41357,92.79602,-1.829224,99.21753,15.83333,4.058333,1.8666669999999999,1
176400,0.02001953,0.7949219,-0.05957031,-2.685547,12.08496,-8.789063,93.49915,-1.065674,109.1052,50.85,-94.13333,28.34167,1
176650,0.3310547,1.28418,-0.31005859999999996,13.48877,-6.103516,13.85498,95.86121,0.5273438,110.3687,15.55833,5.941667,-6.533333,1
176910,-0.07910156,0.8051758,0.04541016,-2.563477,-20.56885,-19.40918,92.86194,-1.153564,108.3307,50.375,-93.875,27.56667,1
177140,-0.10839839999999999,1.180664,-0.1254883,12.69531,-31.12793,14.34326,92.58728,-0.736084,104.1724,23.175,-0.8333332999999999,0.09166667,1
177390,0.015625,0.9960937999999999,0.04638672,-3.90625,7.141113,17.33398,94.422,0.43396,104.8151,49.7,-93.9,27.675,1
177620,0.0234375,0.8354492,-0.06005859,-4.455566,2.319336,-13.06152,93.43323,-0.9063721,107.5726,22.1,-1.216667,-0.025,1
177900,0.26318359999999996,1.1010739999999999,-0.09960938,-6.9580079999999995,-13.91602,20.75195,95.16907,-0.8953857,106.842,15.6,4.791667,-3.508333,1
178130,-0.05224609,0.8022461,-0.01464844,-5.67627,-16.05225,-21.91162,91.73035,-0.09887695,104.1174,49.40833,-92.79166,24.65,1
178410,-0.04931641,1.170898,0.2983398,25.63477,-18.85986,-9.765625,94.0155,-0.38452149999999996,101.0413,48.20833,-94.075,25.63333,1
178690,0.05810547,0.8188477,0.06005859,-7.263184,30.57861,20.38574,94.34509,-0.3186035,103.7494,13.20833,-1.041667,-0.4333333,1
178950,0.12060549999999999,1.4448239999999999,-0.31689449999999997,7.995605,-15.68604,14.16016,94.79004,0.5163574,106.4355,50.93333,-94.7,27.80833,1
179220,-0.1044922,0.8920897999999999,0.06689453000000001,-17.39502,-7.263184,-17.51709,91.66443,-1.433716,108.1659,50.86666,-93.90833,25.89167,1
179550,0.11669919999999999,1.428711,-0.07421875,7.019043,32.04346,-16.90674,93.03223,-1.224976,102.3267,49.24166,-94.775,25.90833,1
179820,0.1210938,0.7758788999999999,-0.03222656,-3.2958979999999998,24.35303,13.30566,93.7738,-0.46691889999999997,106.0016,50.925,-95.09167,26.94167,1
180120,0.005859375,1.376465,-0.11083979999999999,-11.53564,15.56396,-12.45117,95.20203,0.7141113,108.7592,17.99167,0.2583333,0.525,1
180370,-0.06152344,0.9111328,0.1020508,-6.896973,12.93945,-18.18848,93.18054,-2.367554,107.7704,51.50834,-95.09167,26.6,1
180650,0.1948242,1.236816,-0.3706055,9.765625,-14.16016,-4.516602,92.90588,-2.537842,105.1611,49.95833,-95.63333,26.30833,1
180990,0.05566406,0.8461913999999999,0.04736328,-10.0708,30.45654,7.69043,94.6582,-0.4284668,109.8907,13.275,-0.9916666999999999,-1.025,1
181200,0.07763672,0.8828125,-0.08007813,16.35742,3.417969,-23.07129,93.79578,0.5053711,114.2413,22.3,-8.133333,2.375,1
181410,-0.35644529999999996,1.459473,0.1762695,-25.5127,-0.3662109,22.3999,94.45496,-0.04394531,113.1976,19.34167,3.633333,-2.3,1
181620,0.03515625,0.8300780999999999,-0.1328125,-8.544922,-41.07666,6.835938,90.81848,0.39550779999999996,103.9142,50.775,-94.275,24.31667,1
181860,-0.2583008,1.289063,-0.41894529999999996,23.19336,-0.8544921999999999,-9.216309,94.021,-0.7910155999999999,98.45398,16.66667,4.275,2.316667,1
182130,0.07861328000000001,1.136719,0.026367190000000002,-10.92529,10.98633,16.23535,96.45996,1.268921,103.0298,13.625,-0.3833333,-1.816667,1
182370,-0.09179688,1.21875,-0.08740234,-3.4790039999999998,1.8310549999999999,-7.93457,95.72388,1.115112,108.0286,53.14167,-95.425,27.61667,1
182640,-0.1328125,0.8476562999999999,0.09423828000000001,-11.23047,0.9765625,-13.91602,92.31812,-0.7250977,105.7874,51.40833,-94.475,24.51667,1
182930,-0.09423828000000001,0.7519530999999999,-0.03955078,4.272461,-19.40918,15.25879,91.57654,0.14282229999999999,102.843,20.81667,-5.966667,4.333333,1
183190,0.06640625,1.128906,0.1308594,-8.422852,-0.42724609999999996,11.53564,96.427,2.175293,99.98108,50.025,-95.725,25.85,1
183450,0.12255859999999999,0.9609375,-0.12451169999999999,9.277344,15.50293,-12.45117,94.5813,2.334595,103.0573,52.48333,-94.58334,25.75,1
183750,-0.09228516,0.8662109,0.3041992,-35.7666,-9.460449,33.08105,94.24622,0.14282229999999999,103.9417,15.71667,1.283333,0.5166666999999999,1
184000,-0.1040039,0.7895508,-0.05029297,-10.43701,-16.96777,12.146,91.50513,1.054688,103.8538,21.09167,-3.566667,1.808333,1
184280,-0.09619141,1.089355,0.13134769999999998,-0.6713867,-12.39014,-3.601074,94.50989,1.186523,100.9589,13.79167,-0.025,0.5833332999999999,1
184620,0.13476559999999999,0.8359375,-0.1152344,11.65771,14.89258,-17.39502,94.68567,-0.2087402,101.2115,23.73333,-7.025,1.533333,1
184890,-0.07617188,1.066895,0.1850586,-9.338379,9.155273,-10.13184,93.71338,-2.559814,102.6892,14.1,0.08333334,-0.875,1
185260,-0.001953125,1.550781,-0.2241211,20.26367,18.12744,-9.216309,93.49915,-1.032715,101.0577,49.18333,-94.90833,22.975,1
185480,0.04589844,0.9931641,0.05419922,-5.249023,6.469727,17.63916,94.93286,0.4833984,103.8318,13.6,-0.6000000000000001,-1.058333,1
185760,0.04638672,0.7915038999999999,-0.06103516,-8.666992,16.29639,-18.67676,93.50464,-0.604248,107.309,21.43333,-2.033333,-0.48333329999999997,1
185970,0.09863281,0.9716796999999999,0.1289063,1.8310549999999999,2.563477,0.1831055,94.20227,0.04943848,108.7811,15.866670000000001,3.683333,-0.3916667,1
186190,-0.0078125,0.8955078,-0.05712891,4.760742,-28.19824,-6.896973,90.92834,0.7745361,106.0565,52.55833,-93.375,22.74167,1
186430,0.060546880000000004,1.29541,-0.3671875,15.50293,-17.51709,-11.04736,93.32336,-1.038208,100.2557,20.09167,4.066667,3.4,1
186670,0.1577148,0.8178711,0.009765625,-6.713867,12.69531,1.281738,94.69666,-0.49438479999999996,101.8817,49.725,-95.6,25.20833,1
186920,0.1323242,1.254395,-0.07080078000000001,-8.178711,31.61621,-21.66748,95.47119,1.411743,104.859,20.95,0.0,-5.275,1
187200,-0.05322266,0.8657227,0.12255859999999999,-14.34326,-10.37598,-20.44678,91.66992,-0.46691889999999997,100.3217,49.725,-93.30833,21.75,1
187470,0.1499023,1.416992,-0.3706055,4.699707,-1.220703,16.78467,92.52686,-0.6097412,97.89368,47.85833,-93.84167,21.78333,1
187770,-0.005371094000000001,1.126465,0.11621089999999999,-11.65771,5.737305,7.873535,93.78479,1.779785,99.89868,13.8,1.041667,-0.1166667,1
188020,0.27880859999999996,0.9580078,-0.13525389999999998,25.39063,13.06152,-20.62988,94.2572,0.1208496,103.6285,51.825,-94.55833,25.53333,1
188280,0.06835938,1.054199,0.1103516,-0.3051758,7.141113,-7.507324,92.63123,-3.2958979999999998,103.0298,48.425,-94.88333,23.76667,1
188580,-0.048828130000000004,0.8442383,-0.09033203000000001,-9.460449,-15.38086,7.69043,90.66467,-1.279907,102.9803,19.15,-4.208333,3.15,1
189820,-0.1259766,1.466309,-0.3227539,5.737305,-3.90625,-12.02393,92.55981,-1.18103,102.6233,50.13334,-94.49167,23.43333,1
190130,0.08447266,0.7812500000000001,0.0009765625,-3.845215,19.59229,10.00977,94.05945,-0.5767822,105.8588,13.05,-0.2583333,-0.25,1
190450,0.1923828,1.109375,0.1367188,-25.6958,0.7324219,15.38086,94.26819,0.1593018,106.6553,15.34167,3.625,0.5166666999999999,1
190770,-0.01416016,0.8515625,-0.048828130000000004,5.7983400000000005,-31.49414,-12.20703,90.40649,0.7635498,101.7114,13.83333,-0.3333333,-0.8,1
191010,-0.1381836,1.036621,0.1645508,12.81738,-0.4882813,-17.51709,94.0979,0.3515625,98.79456,49.15833,-95.19167,24.01667,1
191240,0.05566406,0.7299804999999999,0.04150391,-5.554199,13.5498,10.43701,92.94434,-0.8898925999999999,100.6897,13.53333,-0.55,-0.08333334,1
191490,0.3188477,1.144043,0.10058589999999999,2.563477,-5.432129,16.47949,92.7301,-0.3186035,99.90967,49.525,-95.39167,24.48333,1
191720,-0.07666016,0.9140625,0.06738281,-10.80322,-3.723145,-20.56885,89.92859,-0.8898925999999999,98.12988,14.125,-0.225,0.48333329999999997,1
192000,0.008300781,0.6782227,-0.01953125,0.9765625,-9.155273,26.61133,87.39075,0.01098633,96.21826,22.51667,-3.325,3.425,1
192220,-0.1123047,1.086914,0.11083979999999999,35.52246,34.60693,-13.12256,92.34009,-1.8731689999999999,97.33337,22.06667,1.558333,0.49166669999999996,1
192440,-0.004394531,0.7905272999999999,-0.07958984,-12.69531,27.89307,-6.591797,93.68591,-1.483154,106.4136,15.26667,-1.091667,2.3,1
192720,-0.26220699999999997,1.197266,0.2026367,-22.64404,11.77979,17.21191,94.42749,-0.9063721,107.0343,51.14167,-96.21667,27.88333,1
192990,-0.01416016,0.9379883,0.01220703,-15.25879,0.3662109,-15.07568,92.04895,-1.8951419999999999,108.8031,13.741670000000001,-2.55,-0.925,1
193260,-0.1318359,1.3510739999999999,-0.1606445,10.92529,8.239746,-21.85059,93.35083,-1.466675,102.9803,14.44167,1.441667,0.3416667,1
193530,0.1289063,0.7861328,-0.02001953,-8.422852,34.36279,8.605957,93.64197,-0.7305908,106.3861,51.36666,-95.725,27.11667,1
193800,-0.1416016,1.232422,-0.1191406,-10.00977,1.159668,-10.68115,95.0647,1.389771,109.6985,18.14167,0.8083332999999999,-0.8583333999999999,1
194050,-0.1254883,0.9326171999999999,0.06982422,-2.502441,-8.544922,-14.34326,92.7356,-1.444702,107.5562,51.15833,-95.05,25.86667,1
194360,0.08105469,1.300781,-0.3588867,25.32959,-17.7002,-6.896973,94.0155,-1.620483,98.74512,20.125,2.408333,4.233333,1
194690,0.1103516,0.8603516,-0.03466797,-6.774902,28.74756,12.20703,96.42151,-0.401001,102.6727,13.675,-1.558333,-2.05,1
195000,0.206543,1.356445,-0.5102538999999999,18.18848,-23.31543,17.21191,96.32263,0.8184813999999999,107.243,17.2,4.333333,-5.758333,1
195230,-0.07666016,0.8544921999999999,0.05419922,-10.49805,-20.20264,-18.85986,93.54858,-0.6262207,103.7549,49.91667,-94.575,24.08333,1
195470,-0.03320313,1.20459,-0.159668,15.01465,-17.82227,14.83154,93.72986,-1.203003,99.58008,22.175,-1.941667,2.35,1
195720,0.02832031,0.9882812999999999,-0.008789063,-6.591797,16.11328,13.85498,97.10266,0.6481933999999999,104.7217,51.325,-95.96667,27.09167,1
195950,0.02685547,0.8193359,-0.03369141,0.12207029999999999,16.11328,-10.86426,95.78979,-0.45593259999999997,108.5449,21.2,-2.516667,-2.208333,1
196230,-0.060546880000000004,1.3041989999999999,0.02001953,-8.972168,-0.7324219,5.065918,96.68518,-0.9722900000000001,107.2925,16.11667,3.716667,-2.241667,1
196440,-0.109375,0.9194336,0.04003906,-15.50293,2.868652,-16.6626,93.59802,-1.477661,108.1989,15.09167,-1.9916669999999999,0.03333333,1
196670,0.02197266,1.377441,-0.3676758,11.04736,-5.004883,-2.746582,93.87817,-1.741333,103.7164,15.425,4.1,1.441667,1
196940,0.1650391,0.8310546999999999,0.017089840000000002,-5.004883,38.45215,20.08057,95.42725,-1.604004,109.2371,52.85,-95.45,26.23333,1
197210,0.26269529999999996,1.114258,-0.04003906,16.23535,23.07129,-20.1416,95.27893,-0.6207275,114.2908,27.06667,-4.875,-1.8666669999999999,1
197490,0.015625,0.9619141,0.12207029999999999,2.01416,-14.95361,-15.19775,92.77405,-2.406006,109.8853,14.51667,0.3916667,-1.525,1
197760,0.2006836,1.289551,-0.22558589999999998,20.87402,-26.18408,7.69043,93.01025,-1.796265,102.8595,49.25834,-94.69167,21.29167,1
198030,-0.05322266,1.187988,0.15039059999999999,3.967285,13.79395,-10.55908,96.63574,0.7415771,104.0021,15.11667,-0.1166667,0.2833333,1
198280,0.06542969,0.8461913999999999,-0.07226563,7.629395,15.56396,-21.30127,95.75684,-0.34606929999999997,109.5612,54.24166,-95.69167,26.21667,1
198600,-0.028808590000000002,1.1166989999999999,0.21337889999999998,-7.507324,6.347656,0.0,93.72437,-2.702637,109.2041,15.6,0.9083334,-1.95,1
198920,-0.2402344,0.9384766,-0.06103516,14.28223,-21.3623,29.84619,91.23596,-1.038208,110.8026,25.375,-5.558333,0.4,1
199200,0.03369141,1.157715,0.09423828000000001,5.92041,20.26367,11.65771,95.5426,0.06591797,114.4061,13.866670000000001,0.01666667,-0.7416667,1
199580,0.3110352,1.509277,-0.215332,-19.22607,3.90625,21.97266,96.828,-0.46691889999999997,120.6189,12.03333,5.783333,-1.116667,1
199860,-0.13525389999999998,0.9296875,0.1054688,-0.06103516,14.34326,-19.22607,93.32886,-3.7408449999999998,123.4918,13.40833,0.2,-0.8666667,1
200070,-0.06298828000000001,0.7861328,-0.08056641,-8.728026999999999,-5.065918,10.98633,91.52161,-1.246948,124.4751,21.25,-2.75,1.808333,1
200290,-0.2241211,1.053223,0.15136719999999998,2.868652,20.01953,-24.04785,96.06445,-0.368042,124.3433,59.725,-95.6,33.175,1
200530,0.01806641,0.7929687999999999,-0.044921880000000004,-6.286621,24.16992,6.408691,94.64172,-2.559814,129.9738,14.18333,-1.141667,-0.09166667,1
200780,-0.190918,1.243652,0.15039059999999999,5.371094,25.14648,-2.624512,95.88867,-1.972046,131.2756,18.325,2.733333,1.391667,1
201080,0.0,0.9135742,-0.1474609,-1.220703,-18.43262,-1.098633,92.90039,-1.51062,132.616,61.31667,-95.425,35.06667,1
201420,0.1796875,1.025391,0.24951169999999998,18.06641,17.21191,-31.00586,96.16882,-2.235718,130.7043,20.925,-0.008333334000000001,-0.2333333,1
201720,-0.01025391,0.7958984,-0.05566406,-3.417969,10.92529,-9.643555,93.69141,-2.329102,137.5653,21.075,-1.683333,2.175,1
201990,0.27050779999999996,1.431152,-0.22070309999999999,-12.63428,3.417969,20.99609,95.91614,-1.290894,137.5818,14.04167,4.083333,-0.7833333,1
202240,0.001953125,0.8237304999999999,-0.04785156,-10.55908,-6.347656,-15.93018,91.9281,-1.582031,138.1146,12.96667,-1.3,-0.35833329999999997,1
202510,-0.07324219,1.067383,0.015625,23.98682,3.662109,-12.146,95.33386,-2.537842,136.0876,61.51667,-96.075,39.63334,1
202800,0.056640630000000004,0.6923828,-0.015136720000000001,-12.75635,35.21729,0.6713867,94.71313,-2.224731,141.4545,63.11666,-95.7,42.13334,1
203090,-0.42822269999999996,1.285156,0.215332,-22.88818,20.08057,15.68604,96.26221,-1.428223,144.7339,63.08333,-95.83334,42.65833,1
203580,-0.05126953,1.358398,-0.05175781,13.24463,26.48926,-11.04736,94.74609,-2.406006,139.3011,61.88334,-95.75,39.925,1
203870,0.1640625,0.9511719,0.02294922,-3.78418,20.38574,14.46533,96.44348,-0.5822754,141.6742,13.15833,-0.4666667,-2.241667,1
204190,-0.1694336,1.265625,-0.1337891,-0.24414059999999999,-12.02393,-1.098633,95.83374,-0.1208496,148.3594,13.575,2.55,-2.883333,1
204390,-0.18945309999999999,0.8823242,0.1020508,-13.24463,6.652832,-18.73779,94.28467,-3.317871,149.5074,62.925,-95.74167,44.66667,1
204660,-0.05957031,0.840332,-0.1259766,8.178711,-39.42871,15.80811,93.14758,-1.878662,144.9646,22.89167,-6.383333,2.975,1
204900,0.1030273,1.044434,0.2807617,13.30566,3.356934,-34.30176,96.39954,-0.8129883,142.3389,19.09167,0.4166667,-1.291667,1
205130,0.03125,0.7695312999999999,-0.08056641,1.586914,-9.033203,-14.46533,93.93311,-0.8898925999999999,142.8387,20.64167,-0.9083334,-0.4166667,1
205380,0.2314453,1.328613,-0.1367188,-20.38574,5.7983400000000005,15.68604,95.91614,0.49438479999999996,141.5259,12.61667,7.408333,-1.491667,1
205600,-0.21337889999999998,0.8847655999999999,0.09375000000000001,-9.216309,-21.66748,-21.42334,92.71912,-1.8457029999999999,139.9329,13.63333,-1.166667,-0.4333333,1
206810,-0.06103516,0.8852538999999999,-0.03125,-19.89746,1.159668,6.774902,92.63672,-0.9942626999999999,139.5538,62.425,-94.90833,39.68333,1
207110,-0.2080078,1.100586,0.052734380000000004,35.64453,3.601074,-9.216309,94.0979,-1.939087,140.636,19.425,1.7083329999999999,0.3333333,1
207360,0.017089840000000002,0.7866211,-0.06689453000000001,-5.310059,33.02002,7.8125,94.00452,-1.763306,146.5631,15.08333,-1.041667,0.6083333,1
207630,-0.36376949999999997,1.364746,0.2358398,-36.8042,-2.746582,41.80908,94.82849,-2.411499,147.6892,63.35,-95.91666,44.5,1
207900,-0.04443359,0.8574219,0.02978516,-10.86426,-0.7324219,-14.16016,92.54333,-2.384033,146.3873,15.49167,-1.8666669999999999,-1.7083329999999999,1
208140,-0.10839839999999999,1.119141,-0.05029297,19.77539,13.3667,-21.42334,94.35608,-2.817993,144.1516,63.19167,-95.85,44.4,1
208440,0.001953125,0.7954102,-0.04394531,-12.08496,38.51318,5.310059,95.72388,-2.246704,151.7322,64.325,-95.45,49.725,1
208710,-0.2470703,1.22998,-0.2431641,-0.12207029999999999,-18.43262,3.4790039999999998,95.57007,0.09887695,153.3691,21.45833,1.416667,-1.066667,1
208960,-0.09277344,0.8691405999999999,0.09228516,-14.4043,6.04248,-19.71436,92.85095,-2.779541,154.0283,64.725,-95.08334,48.35833,1
209270,-0.07910156,1.414063,-0.2768555,0.5493163999999999,2.563477,-8.605957,93.66943,-2.774048,148.8922,16.11667,4.383333,2.516667,1
209610,0.105957,0.8779296999999999,-0.007324219000000001,-6.835938,23.92578,7.202148,96.24573,-0.6207275,152.1387,13.59167,-0.8833333,-1.225,1
209820,0.3007813,1.172363,-0.05908203,13.18359,17.02881,-21.72852,96.24023,0.7141113,153.9624,27.45833,-5.85,1.633333,1
210030,-0.06347656,0.9428711,0.11669919999999999,-4.577637,-12.3291,-13.48877,93.81226,-2.136841,151.6113,65.49167,-94.46667,47.4,1
210290,0.01611328,0.8081054999999999,-0.11425779999999999,-8.544922,-25.08545,10.62012,92.03247,0.08239746,146.2225,20.15,-2.608333,1.5,1
210540,-0.01416016,1.148438,-0.060546880000000004,19.71436,11.23047,-14.28223,94.77905,-0.8459473,142.6685,16.38333,2.45,0.7333333,1
210760,0.07226563,0.8041992,-0.03808594,-12.08496,10.37598,4.272461,95.32288,-0.2966309,144.2285,65.09167,-93.725,44.01667,1
211010,-0.1035156,1.224609,-0.1015625,-9.521484,14.46533,-8.117676,96.68518,1.587524,146.283,16.56667,1.608333,0.5750000000000001,1
211250,-0.07421875,0.9501953,0.04443359,-12.20703,-16.29639,-11.41357,94.58679,-1.593018,143.476,63.25,-94.06667,41.925,1
211510,-0.02392578,0.7910155999999999,-0.08203125,2.380371,-6.713867,16.05225,92.50488,-0.4779053,139.5264,19.38333,-4.716667,1.741667,1
211770,-0.06396484,1.160645,0.06835938,1.6479489999999999,10.13184,-13.18359,96.47095,0.9777832,144.3658,64.7,-93.375,45.53333,1
212060,0.06982422,0.8452147999999999,-0.03564453,-3.234863,16.78467,-15.31982,94.16931,-1.032715,153.4076,20.725,-2.591667,0.8250000000000001,1
212370,0.09423828000000001,1.01123,0.1733398,-7.385254,-2.01416,8.605957,94.15283,-2.653198,152.3199,63.95833,-94.975,49.64167,1
212690,-0.1054688,0.7719727,-0.017089840000000002,1.464844,-26.06201,18.49365,91.69739,-1.065674,149.9469,20.70833,-4.958333,0.5416667,1
213010,0.01953125,1.206543,0.1171875,15.80811,-7.019043,-5.187988,96.71265,1.060181,148.0847,16.26667,-0.08333334,0.2833333,1
213290,0.02050781,0.8432617,-0.1035156,-0.6713867,-11.1084,-24.4751,94.79004,0.269165,151.0291,19.925,-2.175,0.06666667,1
213610,-0.08886719,0.9731445,0.32519529999999996,-16.41846,-65.12451,20.87402,93.03772,2.158813,143.7891,16.30833,1.85,-0.125,1
213930,-0.06640625,0.9570312999999999,0.052734380000000004,-1.8310549999999999,-176.6357,4.089355,89.23645,6.174316,104.1504,16.59167,-1.408333,0.8333332999999999,1
214170,0.5249022999999999,1.181152,0.3291016,-12.69531,-95.45898,18.18848,86.24268000000001,4.581299,76.00891,17.53333,0.31666669999999997,-0.9666665999999999,1
214380,0.19042969999999998,0.9443359,-0.08203125,-10.0708,-123.6572,-17.63916,82.2876,1.296387,39.72107,14.7,-88.65833,12.48333,1
214610,0.27783199999999997,1.091309,-0.08886719,-2.197266,-81.11572,-12.81738,81.97998,1.115112,17.94617,19.10833,-1.133333,0.5666667,1
214860,-0.04980469,1.049805,0.1948242,-0.1831055,-51.33057,-23.4375,82.37549,-0.6481933999999999,0.1098633,-1.416667,-90.49167,30.825,1
215100,0.09326172,0.9208984,-0.0703125,3.78418,-28.80859,-7.93457,84.0509,2.515869,-10.70068,16.78333,-1.633333,4.875,1
215390,-0.08837891,1.005859,0.2431641,3.173828,-16.47949,-2.746582,89.86816,1.351318,-18.44604,-2.058333,-93.925,48.70833,1
215690,0.06591797,0.8730469,-0.08837891,-5.004883,-19.22607,-11.16943,88.37402,0.1757813,-22.70325,16.01667,-1.541667,2.566667,1
216000,-0.2480469,1.063477,0.22119139999999998,-36.74316,-21.42334,27.34375,89.40125,-0.7415771,-24.54346,-2.333333,-92.40833,51.88334,1
216290,0.03613281,0.8632812999999999,-0.11621089999999999,-2.990723,-27.22168,4.150391,87.19299,0.13732909999999998,-29.08081,17.35,-1.85,3.583333,1
216610,-0.08544922,0.9477538999999999,0.1435547,17.33398,-5.065918,-19.16504,92.01599,0.0,-35.10132,0.6583333,-92.84167,59.93333,1
216900,0.015625,0.8261719,-0.078125,0.793457,10.43701,-18.18848,91.74133,-0.08239746,-30.20691,1.008333,-92.875,57.6,1
217170,0.1923828,1.134766,-0.02441406,0.0,-3.967285,14.22119,93.27393000000001,0.2801514,-30.6189,14.23333,5.083333,-0.5916667,1
217450,0.0009765625,0.8300780999999999,-0.03710938,10.37598,-29.72412,-17.7002,89.53308,-0.2911377,-33.10181,13.375,-1.525,-1.166667,1
217730,0.09912109000000001,1.219727,0.2802734,18.37158,-8.789063,-14.64844,91.8457,-0.6701659999999999,-32.9425,20.8,1.666667,-0.4666667,1
218040,0.001464844,0.8354492,-0.02539063,1.708984,15.31982,-9.155273,91.26892,-0.4614258,-29.22363,21.03333,-1.058333,2.8083329999999997,1
218340,0.03320313,0.8720703,0.25488279999999996,-10.25391,-14.4043,27.28271,91.75781,-1.5271000000000001,-30.9375,15.96667,1.225,-0.3916667,1
218700,0.2158203,1.28125,-0.2421875,12.20703,-18.98193,0.0,91.17554,-2.889404,-32.12402,-3.208333,-90.19167,58.075,1
218960,0.044921880000000004,1.130859,0.128418,-1.403809,-1.342773,-9.765625,93.22449,0.28564449999999997,-31.51978,15.4,0.04166667,-0.5,1
219210,0.07763672,0.8256836,-0.09521484000000001,15.19775,5.67627,-23.55957,93.12561,0.604248,-28.51501,-0.06666667,-92.675,57.025,1
219460,-0.4023438,1.341797,0.19824219999999998,-44.67773,-9.82666,36.8042,93.92761,-0.39550779999999996,-28.58643,20.1,2.6,0.2666667,1
219690,-0.046875,0.8666992,0.028808590000000002,-9.216309,-16.41846,-15.50293,90.95032,-1.005249,-30.51453,14.175,-1.725,-1.808333,1
219900,-0.05859375,1.049316,-0.009765625,18.18848,21.11816,-12.75635,92.47192,-2.109375,-33.81592,-0.6666667,-91.0,59.025,1
220180,0.11425779999999999,0.9121094,0.01171875,-0.9765625,23.19336,17.39502,94.6582,-0.5712891,-31.14075,12.125,-1.383333,-1.316667,1
220440,0.09472656,0.7890625,0.02734375,-1.037598,1.464844,-20.44678,94.22974,-0.7580566,-28.32275,23.275,2.683333,-1.8333329999999999,1
220710,-0.06835938,0.8754883,0.0546875,-8.911133,7.8125,-13.12256,91.76331,-2.543335,-29.98718,-1.391667,-91.25,56.75,1
221010,-0.05810547,1.03125,-0.1674805,23.4375,-43.5791,22.94922,92.05444,-2.938843,-33.33252,21.91667,1.1,0.925,1
221250,0.07373047,0.9355469,0.004394531,-1.098633,21.60645,15.13672,96.49292,-0.7196045,-30.10254,-1.6,-91.60833,58.78333,1
221520,-0.1196289,1.22168,-0.17382809999999999,-0.5493163999999999,-23.80371,-0.24414059999999999,97.2345,1.09314,-25.83435,0.125,-93.08334,56.725,1
221820,0.19775389999999998,1.022949,0.1484375,-13.06152,10.13184,12.75635,94.422,-2.894897,-28.24036,15.88333,1.066667,-1.366667,1
222080,-0.1455078,1.009766,-0.1650391,13.85498,-43.82324,28.19824,94.00452,-2.329102,-29.91028,23.81667,0.48333329999999997,3.2,1
222360,0.07714844,0.9042969,-0.005859375,-17.51709,19.89746,14.70947,96.48743,-0.28564449999999997,-30.78918,12.85,-1.216667,-1.9916669999999999,1
222690,-0.2529297,1.20166,-0.1040039,8.300781,-28.44238,-0.42724609999999996,95.93262,1.367798,-25.80688,23.65833,2.9,-1.341667,1
223940,0.2885742,0.8569336,0.4179688,-17.94434,-9.277344,35.94971,94.19128,-2.521362,-34.53552,0.425,-92.41666,61.725,1
224280,-0.1518555,0.8125,-0.06982422,15.13672,-36.31592,23.98682,93.20251,-1.323853,-34.98596,24.125,-6.1,1.658333,1
224510,0.22216799999999998,1.081055,0.25439449999999997,12.69531,17.15088,-30.15137,98.09143,0.2526855,-36.52954,20.69167,0.06666667,0.1416667,1
224730,0.02539063,0.7812500000000001,-0.1044922,-8.178711,19.83643,-14.46533,96.69617,0.19775389999999998,-30.17395,0.5166666999999999,-93.99167,59.85,1
224960,0.24560549999999998,1.069336,-0.008789063,-9.643555,0.0,11.53564,97.93762,1.246948,-30.50354,0.425,-94.14167,59.73333,1
225200,-0.18212889999999998,0.9262695,0.08935547,-15.01465,-10.37598,-24.53613,94.39453,-0.9722900000000001,-32.27234,13.68333,-0.8,-0.7000000000000001,1
225460,-0.09619141,0.793457,-0.02539063,0.1831055,-21.42334,16.41846,92.95532,1.521606,-37.88086,22.31667,-5.241667,1.658333,1
225680,-0.08496094,1.295898,0.1171875,-5.310059,24.04785,4.699707,97.46521,2.010498,-40.4187,13.975,-0.2916667,-0.8916666,1
225950,0.15039059999999999,0.855957,-0.07910156,15.625,14.03809,-22.58301,95.38879,0.2252197,-34.3103,0.875,-94.3,60.75,1
226220,-0.3305664,1.20752,0.3530273,-44.06738,-22.58301,32.95898,95.63599,0.02197266,-36.7218,18.49167,2.475,-0.5833332999999999,1
226470,0.0390625,0.7734375,-0.08154297,-3.662109,-28.01514,15.56396,93.52112,1.768799,-46.57654,2.708333,-94.23333,66.79166,1
226770,-0.1850586,0.9799804999999999,0.1650391,-2.929688,-10.49805,-12.69531,96.58081,3.438721,-50.89966,5.158333,-94.35833,70.66666,1
227030,0.04296875,0.7553711,-0.05175781,-6.713867,13.24463,-1.342773,95.27344,1.208496,-49.30115,12.90833,-1.908333,2.366667,1
227290,-0.4609375,1.583008,0.18652339999999998,-33.44727,4.02832,29.41895,96.89941,2.301636,-49.15283,3.558333,-94.06667,69.35833,1
227600,0.056640630000000004,0.8569336,-0.1337891,-19.83643,-26.61133,2.624512,93.31787,2.730103,-58.32092,18.225,-2.325,2.558333,1
227890,-0.20556639999999998,1.140625,0.1879883,4.821777,21.78955,-28.86963,96.5918,1.746826,-56.79382,6.241667,-94.13333,73.525,1
228200,-0.03271484,0.7290038999999999,-0.12744139999999998,16.90674,9.338379,-17.08984,96.74561,0.1153564,-49.19128,22.4,-3.183333,-0.4666667,1
228570,-0.09814453000000001,0.9072266,0.07714844,-14.4043,-12.93945,-27.28271,94.63074,-1.884155,-51.88843,2.35,-93.44167,69.41666,1
228840,-0.02539063,0.7182617,-0.0859375,9.033203,-35.27832,24.6582,93.3728,0.08789063,-57.28271,23.35,-6.333333,2.641667,1
229080,0.08837891,1.223633,0.0546875,2.807617,-5.432129,8.972168,97.09717,2.900391,-61.27075,7.866667,-93.875,75.825,1
229320,0.046875,0.6806641,-0.05371094,-12.63428,18.67676,-16.96777,96.3446,0.7470703,-58.61755,17.30833,-3.45,1.375,1
229560,0.11425779999999999,1.466797,-0.1103516,-1.8310549999999999,-41.87012,38.14697,98.00903,2.400513,-58.32092,21.20833,4.491667,-7.75,1
229770,0.02587891,0.7377929999999999,-0.05517578,-5.493164,-10.62012,-16.29639,92.92236,1.636963,-65.36865,9.083333,-95.75833,73.86667,1
230010,0.1621094,1.307617,-0.3779297,24.16992,-29.60205,-2.868652,95.58655,-0.1702881,-68.73596,19.53333,4.308333,4.066667,1
230300,0.140625,0.7407227,0.005371094000000001,-12.08496,7.263184,5.7983400000000005,98.06946,1.636963,-68.13721,9.908334,-93.83334,78.63333,1
230560,-0.1367188,1.229492,-0.11669919999999999,-14.5874,13.3667,-15.50293,98.16284,4.405518,-66.40137,19.06667,1.066667,-3.333333,1
230770,0.08447266,0.9375,0.328125,-34.5459,-17.63916,36.37695,94.67468,0.14282229999999999,-69.38965,16.11667,0.6416666999999999,-0.2166667,1
231000,-0.07666016,0.6967772999999999,-0.046875,0.06103516,-12.63428,21.11816,91.53809,1.768799,-76.31653,13.23333,-95.35,77.81667,1
231260,0.4614258,1.369141,0.5668945,37.10938,13.06152,-36.31592,95.31738,1.268921,-77.7887,23.88333,1.925,-0.8833333,1
231510,0.04980469,0.7456054999999999,-0.01904297,-6.225586,21.97266,-14.95361,93.86719,0.6536865,-71.24634,11.41667,-94.325,77.21667,1
231800,0.05371094,0.9814453,0.2880859,-8.056641,-6.164551,34.05762,94.8175,-1.950073,-69.36218,15.75,0.5833332999999999,-0.1833333,1
232140,-0.05419922,0.7558594,-0.08447266,4.699707,2.13623,22.3999,93.62549,-2.037964,-67.79114,20.54167,-5.925,2.016667,1
232430,0.08154297,1.266113,0.00390625,-3.78418,7.995605,12.45117,99.15161,0.5383300999999999,-65.0061,12.65833,-0.3416667,-1.933333,1
232780,0.1918945,1.325195,-0.09423828000000001,5.371094,10.86426,-16.78467,98.64075,1.494141,-61.23779,23.18333,0.48333329999999997,-3.9,1
233070,-0.08691406,0.8486328,0.07128906,-2.990723,-14.4043,-20.62988,95.35034,-1.807251,-65.17639,13.14167,-1.275,-0.85,1
233320,0.03857422,1.379883,-0.3554688,5.493164,3.173828,-16.11328,94.77356,-1.203003,-72.14722,10.25833,-94.025,75.89167,1
233550,0.0390625,1.231445,0.05029297,-2.319336,10.13184,15.44189,98.06396,1.609497,-70.37842,13.85,-0.075,-0.31666669999999997,1
233800,0.05957031,0.7543945,-0.06201172,0.4882813,2.197266,-16.11328,97.1521,0.5548096,-67.57141,20.925,-2.1,1.9583329999999999,1
234020,0.03662109,1.200684,0.26318359999999996,-32.95898,-16.47949,42.29736,96.22375,-1.906128,-68.45032,15.73333,0.1666667,-0.5,1
234320,-0.06591797,0.7329102,-0.05126953,9.094238,-28.07617,22.94922,93.63098,-0.46691889999999997,-73.56445,11.71667,-94.50833,76.36667,1
234650,-0.03613281,1.370117,-0.02587891,2.441406,10.37598,13.91602,97.82776,1.060181,-72.9657,12.81667,-0.525,-0.4583333,1
234930,-0.1176758,1.20459,-0.08447266,-4.333496,22.27783,-28.50342,98.99231,1.779785,-66.30798,11.675,-94.3,76.59167,1
235230,-0.1196289,0.8940429999999999,0.020996090000000002,-5.249023,5.859375,-21.24023,95.59204,-0.6811522999999999,-69.22485,10.66667,-94.925,74.68333,1
235500,-0.11865229999999999,0.8129883,-0.05419922,8.911133,-34.91211,26.61133,94.2572,-0.27465819999999996,-70.69702,22.20833,-5.2,2.55,1
235740,0.09179688,1.115234,0.05371094,-5.310059,1.586914,13.91602,97.04773,1.411743,-71.73523,12.225,-94.60833,77.0,1
236040,0.18945309999999999,1.239258,-0.15917969999999998,25.08545,23.01025,-32.89795,99.20105,2.241211,-70.68054,21.21667,1.825,-3.625,1
236340,-0.01953125,0.8857421999999999,0.03515625,-1.525879,20.38574,-12.146,95.79529,-0.04394531,-75.28931,12.71667,-95.16666,76.3,1
236650,-0.07373047,1.45459,-0.3081055,9.460449,3.417969,-7.8125,96.51489,-0.7800292999999999,-78.17322,13.05,-94.05,78.35833,1
236940,0.07324219,0.6367187999999999,-0.0034179690000000003,-17.21191,40.83252,-1.525879,97.53662,0.005493164,-71.79016,11.34167,-94.18333,76.7,1
237240,-0.2529297,1.138184,0.1914063,-24.29199,-27.9541,15.625,97.73438,0.2911377,-71.48804,11.61667,-94.55833,76.375,1
237580,0.03466797,0.7553711,-0.041015630000000004,-5.859375,-23.68164,-1.586914,92.40601,0.2801514,-78.17322,16.55833,-1.075,1.391667,1
237810,-0.08984375,1.287598,-0.2041016,9.460449,5.432129,-0.3051758,93.46619,-1.477661,-81.60095,20.425,2.833333,1.258333,1
238030,0.14257809999999999,0.9272461,0.044921880000000004,12.63428,8.117676,8.483887,95.66895,0.27465819999999996,-78.74451,12.475,-0.7916667,-0.15,1
238230,-0.1796875,1.217285,-0.2680664,2.13623,-26.61133,-1.89209,97.19055,1.867676,-70.25208,12.75,-94.49167,77.725,1
238480,0.006835938000000001,1.025879,0.2661133,-17.02881,0.3051758,7.263184,93.10913,-2.098389,-70.41687,14.75,0.17500000000000002,-1.258333,1
238740,-0.0234375,0.7856445,-0.060546880000000004,-13.73291,-13.24463,2.502441,91.50513,-0.13732909999999998,-70.80139,19.08333,-3.083333,4.541667,1
238970,-0.2763672,1.175781,0.07666016,0.0,2.868652,-10.25391,96.60278,0.9613037,-73.927,15.38333,-0.6166667,1.7,1
239250,0.1235352,0.8383788999999999,-0.1572266,15.99121,1.89209,-20.81299,97.75085,0.7635498,-68.92822,11.51667,-93.30833,77.875,1
239540,-0.2651367,1.158203,0.2260742,-31.37207,-8.605957,34.91211,97.30591,-0.3131104,-68.71399,17.05,2.716667,1.425,1
240770,-0.09619141,0.8852538999999999,0.03955078,-1.953125,-13.12256,-13.24463,94.63074,0.7196045,-73.19641,13.08333,-94.825,76.825,1
241070,-0.1333008,1.4135739999999999,-0.03662109,2.441406,36.68213,-10.92529,95.82275,-0.3570557,-77.20093,19.28333,2.058333,0.31666669999999997,1
241380,0.06738281,0.7568359,-0.08740234,-5.737305,24.59717,-1.342773,96.65222,0.6756592,-74.22363,12.84167,-93.94167,78.525,1
241670,-0.2270508,1.297363,0.18994139999999998,-27.22168,0.793457,31.61621,97.16858,0.02197266,-71.72424,17.65,2.966667,-1.825,1
241980,-0.02587891,0.7949219,-0.08935547,-9.643555,-30.27344,0.24414059999999999,92.47192,-0.5548096,-74.34448,11.88333,-95.44167,75.65,1
242280,-0.07421875,1.289063,0.1376953,-14.03809,16.35742,-11.23047,96.56433,1.164551,-74.85535,12.65,-94.74167,77.88333,1
242560,0.02832031,0.6660155999999999,-0.06152344,-4.333496,20.75195,-7.324219,95.36133,-0.32409669999999996,-70.90576,16.14167,-1.541667,2.766667,1
242810,-0.20214839999999998,0.9785155999999999,0.28613279999999996,-45.47119,-8.239746,38.51318,95.76233,-0.6976317999999999,-68.7085,16.575,2.316667,-1.8333329999999999,1
243150,-0.03857422,0.7871094,-0.02929688,-13.61084,-34.729,6.652832,92.44446,-0.3790283,-75.99243,20.75,-4.133333,3.408333,1
243360,-0.06347656,1.191406,0.31835939999999996,51.26953,-11.41357,-13.3667,95.77332,-0.9942626999999999,-79.3158,20.775,1.775,0.2,1
243560,0.078125,0.7802734,-0.04345703,-2.258301,21.3623,7.93457,97.60254,0.6262207,-78.25012,11.19167,-0.75,-0.2916667,1
243780,0.1342773,1.138672,-0.1870117,10.62012,35.03418,-19.71436,98.79456,2.043457,-72.71851,25.78333,1.825,-7.883333,1
243990,-0.15039059999999999,0.9038086,0.022460940000000002,3.4790039999999998,-11.65771,-12.57324,95.98755,-2.658691,-73.41614,10.8,-93.84167,76.84167,1
244240,-0.10693359999999999,0.8471679999999999,-0.08056641,6.408691,-25.6958,27.34375,94.76807,-2.27417,-75.94299,25.79167,-3.966667,2.2,1
244480,0.04980469,1.064941,-0.006835938000000001,-5.432129,20.26367,17.02881,98.60229,0.368042,-73.99292,12.45,-93.51667,78.5,1
244720,-0.004394531,0.7773437999999999,-0.08300781,1.586914,4.455566,-20.87402,98.14636,-0.9448242,-68.7854,19.95,-1.491667,-1.75,1
245000,0.1074219,0.9008788999999999,0.2602539,-20.99609,-15.625,33.5083,95.63599,-2.334595,-70.15869,9.516666,-94.35833,74.49167,1
245290,-0.17041019999999998,0.8471679999999999,-0.06396484,5.310059,-29.05273,25.02441,94.59778,-1.279907,-74.10278,11.46667,-94.85833,75.50833,1
245550,-0.08203125,1.071777,0.16259769999999998,16.90674,27.28271,-40.1001,99.12964,1.049194,-75.32227,18.19167,0.5333333,0.30000000000000004,1
245820,-0.01220703,0.6352538999999999,-0.1303711,9.58252,12.51221,-20.1416,98.92639,1.148071,-72.00439,13.28333,-94.25,77.76667,1
246090,0.009765625,1.301758,0.1533203,-25.08545,1.403809,26.06201,97.09167,-2.213745,-73.93799,11.025,-93.8,76.14167,1
246390,0.030273440000000002,0.7905272999999999,-0.1079102,-10.92529,-32.89795,-3.4790039999999998,94.53186,-0.03295898,-77.32178,14.35,-1.358333,1.883333,1
246650,-0.1699219,1.132813,0.1181641,16.11328,26.79443,-39.73389,98.68469,0.1098633,-78.19519,16.8,-0.03333333,0.125,1
246920,-0.0034179690000000003,0.8203125,-0.07910156,2.319336,6.774902,-24.4751,98.38806,0.5822754,-73.35022,19.65,-1.5833329999999999,-0.9583332999999999,1
247290,-0.08349609,0.9208984,0.02832031,-4.943848,-5.859375,-8.605957,95.5426,-2.142334,-72.34497,10.54167,-94.24167,74.53333,1
247520,-0.1113281,1.040527,-0.1181641,18.73779,-38.51318,21.24023,94.74609,-2.27417,-76.81641,25.14167,-2.325,1.175,1
247800,-0.1679688,1.092773,0.12255859999999999,17.8833,19.59229,-30.45654,98.78357,0.1043701,-76.30005,16.71667,-0.47500000000000003,0.2833333,1
248010,0.07324219,0.7617187999999999,-0.08984375,-5.981445,38.39111,2.01416,98.62976,-0.9667969,-72.8009,13.375,-0.4666667,-0.6333333,1
248220,-0.1630859,1.228516,0.18212889999999998,-4.333496,2.319336,19.9585,99.29993,-0.4998779,-70.2301,21.20833,3.091667,-0.8333332999999999,1
248490,-0.0625,0.9477538999999999,0.004882813000000001,-7.446289,-15.44189,-21.72852,96.89941,-2.70813,-71.57043,14.0,-2.4,-1.016667,1
248700,-0.04443359,1.40918,-0.1289063,2.13623,46.50879,-19.9585,97.10815,-2.092896,-75.62439,12.14167,-92.74167,76.4,1
248960,0.1333008,0.9677734,0.02539063,1.098633,17.21191,13.18359,99.1571,0.03845215,-74.61914,14.19167,-1.025,-1.158333,1
249230,-0.24462889999999998,1.166504,-0.09667969,-8.178711,-2.380371,-12.57324,99.79431,1.296387,-68.82385,13.50833,-92.875,76.45,1
249530,-0.105957,0.921875,0.02197266,-4.638672,-19.77539,-14.83154,96.28418,-1.96106,-71.69128,14.54167,-2.95,-0.06666667,1
249850,0.1723633,1.472656,-0.1777344,2.502441,19.28711,-18.37158,98.0365,-1.911621,-81.02966,14.875,-91.88333,78.325,1
250140,0.1191406,0.7807617,-0.06640625,-17.63916,39.42871,6.530762,99.44824,-0.3405762,-77.56348,13.725,-1.15,-0.7166667,1
250450,0.11474609999999999,1.089844,0.12060549999999999,-18.49365,1.098633,16.60156,99.60205,0.9393311,-74.66309,14.8,-92.925,76.69167,1
250740,-0.001953125,0.8007812999999999,-0.08105469,-6.225586,-24.53613,-9.460449,95.07019,-0.2142334,-77.77771,15.65,-94.09167,75.63333,1
251030,0.27099609999999996,1.239258,0.33251949999999997,28.25928,-11.90186,-31.00586,97.94312,0.0,-83.02368,17.93333,-92.86667,78.89167,1
251340,-0.046875,0.7211913999999999,-0.07324219,4.211426,4.821777,-19.65332,97.53113,-0.302124,-77.05811,15.93333,-92.53333,77.95,1
251640,0.0859375,0.8476562999999999,0.33398439999999996,-17.57813,-4.211426,40.1001,97.01477,-1.9006349999999999,-78.80493,14.7,-91.98333,77.8,1
251980,-0.05566406,0.7695312999999999,-0.030273440000000002,-9.338379,-12.02393,17.39502,95.36133,-1.241455,-79.21143000000001,24.65833,-5.191667,1.225,1
252250,-0.08544922,0.9794921999999999,0.12060549999999999,26.18408,6.347656,-27.46582,99.03625,0.005493164,-79.01367,19.15,-0.01666667,0.17500000000000002,1
252460,0.01367188,0.6665038999999999,-0.1098633,11.53564,5.737305,-19.22607,98.80554,0.2966309,-74.47083,15.91667,-92.05,77.7,1
252690,-0.01367188,1.1635739999999999,0.1411133,-5.432129,-4.394531,20.20264,99.67896,0.5548096,-74.10828,19.90833,4.233333,-3.991667,1
252940,0.01025391,0.809082,-0.1328125,-4.699707,-35.40039,-8.666992,94.41101,0.49438479999999996,-78.27209,16.94167,-93.525,75.2,1
253170,-0.044921880000000004,1.422852,-0.2314453,14.52637,27.64893,-7.141113,96.56433,-2.1698,-81.44714,17.36667,3.175,3.166667,1
253470,0.08398438,0.7583008,-0.07617188,-7.141113,29.60205,-0.3051758,99.46472,-0.7635498,-77.81067,16.425,-91.36667,78.21667,1
253760,0.02392578,1.285156,0.11621089999999999,-3.90625,-0.3662109,23.37646,99.37683,-0.1593018,-76.27258,19.70833,3.916667,-1.808333,1
254070,-0.02001953,0.8647461,-0.1645508,-1.098633,-32.65381,1.586914,95.37231,-0.2362061,-77.92053,17.33333,-92.90833,75.74167,1
254370,-0.1015625,1.209473,0.1079102,4.882813,-22.15576,-21.3623,99.8822,2.1698,-83.79822,14.61667,0.1833333,-0.1333333,1
254670,0.1289063,0.7407227,-0.1289063,15.07568,-10.62012,-16.11328,98.62427,2.026978,-86.33057,23.26667,-91.80833,80.18333,1
254970,-0.03125,1.006348,0.15869139999999998,-20.62988,-17.21191,-16.60156,96.56433,-0.6481933999999999,-91.82373,23.975,-92.38333,79.55,1
255240,0.009277344,0.8227538999999999,-0.12695309999999999,-0.4882813,-11.2915,9.033203,95.75134,2.109375,-96.32263,20.46667,-4.383333,3.341667,1
255500,-0.01171875,1.262695,0.07421875,-1.708984,-10.80322,-22.88818,100.5359,3.78479,-99.17908,14.71667,-0.3333333,-2.366667,1
255810,0.1123047,0.7749022999999999,-0.07470703000000001,4.089355,-15.44189,-20.38574,98.25073,3.433228,-99.50867,20.28333,-2.983333,0.075,1
256100,0.1113281,0.9790038999999999,0.1484375,-7.019043,-24.84131,20.81299,96.74011,2.356567,-106.6553,15.28333,0.2333333,-0.17500000000000002,1
