Timestamp,AccX,AccY,AccZ,GyroX,GyroY,GyroZ,AngX,AngY,AngZ,MagX,MagY,MagZ,Tag
15149,-0.001464844,0.9516602,-0.328125,1.098633,0.6713867,-0.3662109,109.3854,0.9887695,95.15259,16.00833,-5.666667,0.1083333,1
15389,-0.01367188,0.9179687999999999,-0.3320313,-4.882813,-0.4882813,-0.12207029999999999,108.9569,0.9777832,95.58105,15.89167,-5.416667,-0.25,1
15629,-0.015625,0.9370117,-0.2973633,1.953125,0.1831055,-0.6103516,108.7646,1.115112,95.49866,16.5,-5.65,0.5750000000000001,1
15849,-0.02978516,0.9291992,-0.31054689999999996,-1.281738,-3.967285,0.6103516,108.4186,0.9667969,95.20203,17.31667,-34.925,12.1,1
16089,0.002441406,0.9121094,-0.3046875,7.446289,3.051758,-0.9155272999999999,108.7207,1.104126,95.20752,16.675,-6.041667,1.175,1
16369,-0.05322266,0.9443359,-0.347168,-10.86426,1.525879,0.12207029999999999,109.2151,1.010742,95.82825,15.31667,-5.608333,0.4,1
16589,-0.05322266,0.9443359,-0.347168,-10.86426,1.525879,0.12207029999999999,109.2151,1.010742,95.82825,15.36667,-5.458333,0.9,1
16819,-0.052734380000000004,0.9570312999999999,-0.3393555,-20.99609,1.525879,0.3662109,109.0887,0.8349609,95.43274,15.16667,-5.241667,-0.35000000000000003,1
17070,-0.00390625,0.8959961,-0.31738279999999996,7.568359,-0.6713867,0.0,108.4131,1.312866,94.96582,17.525,-34.60833,12.41667,1
17339,-0.05126953,0.9414062999999999,-0.3666992,-5.859375,1.6479489999999999,0.5493163999999999,109.726,1.043701,95.43274,16.2,-5.866667,-0.5916667,1
17579,-0.017089840000000002,0.9223633,-0.3056641,10.25391,0.0,0.12207029999999999,108.9075,1.230469,95.1416,17.4,-34.34167,12.73333,1
17879,-0.02441406,0.9511719,-0.3857422,-9.58252,-2.13623,-0.3662109,110.3027,0.9942626999999999,95.25696,17.24167,-34.13334,13.325,1
18159,-0.02734375,0.9145508,-0.2895508,4.821777,0.9155272999999999,0.0,109.0009,1.115112,95.33936,16.25,-5.541667,1.616667,1
18419,-0.03710938,0.9482421999999999,-0.3916016,-7.019043,-4.272461,0.9765625,111.1707,0.9667969,95.28442,16.0,-6.283333,-1.108333,1
18719,-0.06884766,0.9282227,-0.31738279999999996,6.408691,3.4790039999999998,-3.540039,109.7369,0.9722900000000001,95.13062,16.625,-5.433333,0.525,1
19049,-0.01367188,0.9213867,-0.3276367,1.281738,-4.089355,-0.5493163999999999,109.9017,1.043701,94.79004,15.91667,-5.583333,0.675,1
19259,0.0234375,0.9316405999999999,-0.3696289,6.774902,5.67627,-1.6479489999999999,110.9235,1.071167,94.78455,16.075,-6.425,0.875,1
19479,-0.04833984,0.8901367,-0.4052734,12.08496,-7.93457,0.12207029999999999,112.4725,0.6536865,95.08667,16.95833,-32.9,15.2,1
19749,0.022460940000000002,0.9272461,-0.4072266,-1.708984,-2.441406,1.8310549999999999,113.2031,0.9228516,93.94409,16.26667,-6.75,-0.15,1
19989,-0.0034179690000000003,0.9379883,-0.3989258,-0.7324219,-1.953125,1.098633,113.0054,0.9832763999999999,94.02649,15.54167,-6.616667,-0.05833333,1
20209,-0.03466797,0.9155272999999999,-0.3779297,-3.356934,-3.845215,4.577637,112.6373,0.401001,94.31763,14.875,-5.891667,0.8416665999999999,1
20479,-0.001464844,0.9780272999999999,-0.38867189999999996,2.563477,-19.22607,7.568359,113.5162,0.5053711,90.99426,16.21667,-7.316667,-1.491667,1
20699,0.0,0.9277344,-0.3666992,1.708984,-2.380371,-0.12207029999999999,112.3407,1.994019,86.8634,19.6,-33.91667,11.04167,1
20969,-0.02734375,0.9829102,-0.4233398,-5.126953,14.52637,-5.065918,112.7637,1.917114,87.59949,15.94167,-6.008333,-0.85,1
21219,-0.02539063,0.9101562999999999,-0.3745117,2.868652,19.40918,-11.77979,112.088,1.966553,91.34583,16.91667,-6.516667,-0.09166667,1
21459,-0.04248047,0.9272461,-0.3745117,-3.234863,-1.7700200000000001,1.220703,111.0498,2.471924,93.86719,15.95833,-5.95,-0.65,1
21699,-0.04199219,0.9267578,-0.331543,-1.8310549999999999,1.464844,-0.6713867,110.0446,2.362061,93.94409,18.71667,-33.81667,12.68333,1
21999,-0.05078125,0.934082,-0.3422852,1.037598,2.319336,-1.708984,110.1489,2.444458,94.29565,15.991670000000001,-5.85,0.225,1
22239,-0.01806641,0.9428711,-0.3457031,3.601074,8.422852,-3.4790039999999998,110.8191,2.5927729999999998,95.90515,16.16667,-5.908333,0.6166667,1
22519,-0.08007813,0.9365234,-0.35693359999999996,2.441406,6.591797,-1.098633,111.4673,2.307129,97.83325,15.81667,-6.225,0.1416667,1
22769,-0.026367190000000002,0.9248046999999999,-0.3769531,1.464844,3.112793,-0.12207029999999999,112.0221,1.8457029999999999,98.1134,15.575,-6.416667,0.1083333,1
23059,-0.01611328,0.9365234,-0.3740234,-0.9765625,0.0,-0.6103516,112.3352,1.593018,100.7172,15.88333,-6.675,-0.875,1
23379,-0.01318359,0.9106445,-0.34960939999999996,4.150391,-4.516602,4.699707,111.4453,1.323853,100.1349,15.50833,-6.241667,0.6166667,1
23609,-0.001464844,0.9296875,-0.38916019999999996,6.9580079999999995,-13.97705,4.577637,112.4945,1.153564,98.23425,15.48333,-6.525,0.6416666999999999,1
23829,-0.017089840000000002,0.9311522999999999,-0.4697266,5.249023,-8.056641,2.868652,114.505,0.4174805,96.04248,16.61667,-32.09167,17.1,1
24059,0.02197266,0.9057617,-0.42041019999999996,-7.385254,-10.13184,-5.859375,113.7305,1.279907,94.45496,15.675,-6.1,-0.8333332999999999,1
24309,-0.06591797,0.9379883,-0.3833008,-9.338379,-11.65771,-4.272461,112.0496,2.680664,92.74658,15.48333,-6.366667,-1.233333,1
24529,-0.0546875,0.9472655999999999,-0.3349609,-9.460449,0.6103516,-2.563477,110.061,3.6804200000000002,91.59851,16.075,-5.483333,-1.083333,1
24779,-0.05859375,0.953125,-0.2988281,-0.7324219,2.13623,0.3662109,108.3582,3.076172,93.71338,16.15833,-5.008333,-0.2,1
25049,-0.03857422,0.9487304999999999,-0.3081055,1.281738,0.6103516,2.197266,108.3472,2.307129,93.78479,18.40833,-34.64167,11.36667,1
25319,-0.03564453,0.9428711,-0.3139648,1.037598,0.12207029999999999,-0.12207029999999999,108.6932,2.081909,93.30688,18.56667,-34.65,11.31667,1
25629,-0.04003906,0.9394530999999999,-0.3193359,3.540039,2.380371,0.9155272999999999,109.1327,2.043457,93.58704,16.13333,-5.658333,0.5333333,1
25869,-0.01953125,0.9399413999999999,-0.33251949999999997,2.624512,0.24414059999999999,1.525879,110.1654,1.126099,94.30664,15.96667,-5.916667,0.225,1
26169,-0.02587891,0.9409179999999999,-0.3442383,-0.12207029999999999,-1.098633,-0.793457,110.5609,1.109619,94.14185,16.0,-5.758333,-0.225,1
26479,-0.006835938000000001,0.9321288999999999,-0.34863279999999996,-6.286621,1.525879,-1.525879,109.5447,1.477661,93.76282,16.43333,-5.633333,-1.208333,1
27839,-0.06445313,0.953125,-0.2993164,4.943848,2.13623,-0.6103516,107.2156,3.592529,93.50464,16.25,-4.991667,0.7000000000000001,1
28099,-0.060546880000000004,0.9833984,-0.29443359999999996,-0.8544921999999999,-0.5493163999999999,0.0,108.2043,2.900391,94.27917,15.63333,-4.958333,-0.5166666999999999,1
28369,-0.06640625,0.9726562999999999,-0.3305664,9.399414,7.69043,1.8310549999999999,108.7592,2.559814,94.37805,16.14167,-5.55,0.425,1
28739,-0.02587891,0.9536133,-0.3530273,-3.845215,-1.8310549999999999,2.13623,109.6875,1.257935,95.3064,17.11667,-34.13334,13.36667,1
29009,-0.008300781,0.9267578,-0.2963867,0.24414059999999999,2.258301,-0.06103516,108.5504,1.1920169999999999,95.18555,16.18333,-4.7,0.9083334,1
29249,-0.02050781,0.9482421999999999,-0.3242188,9.155273,0.24414059999999999,1.220703,109.8029,1.071167,95.47668,15.866670000000001,-6.158333,1.158333,1
29519,-0.02392578,0.9106445,-0.3833008,-1.220703,5.126953,-3.78418,111.9342,0.8953857,95.25146,15.75833,-6.291667,0.1416667,1
29789,-0.07470703000000001,0.9418945,-0.4160156,-2.075195,-7.995605,1.281738,112.11,0.7965088,98.02551,15.46667,-6.141667,-0.08333334,1
30069,0.01855469,0.9448242,-0.37353519999999996,-0.6103516,9.58252,1.220703,111.6101,1.5325929999999999,94.75708,17.15,-33.13334,14.63333,1
30309,-0.03369141,0.9770508,-0.39697269999999996,-3.845215,-3.417969,2.868652,112.0935,0.43396,96.08643000000001,16.00833,-6.3,-0.15,1
30559,0.04248047,0.9448242,-0.3349609,-4.333496,-5.737305,-1.098633,111.3025,1.483154,94.15833,15.61667,-5.825,0.08333334,1
30769,0.024902340000000002,0.9482421999999999,-0.36474609999999996,4.089355,16.8457,4.211426,111.5881,1.021729,94.70764,16.51667,-7.0,0.1833333,1
31039,-0.01416016,0.9287109,-0.3422852,0.7324219,-8.728026999999999,-2.868652,111.5112,1.148071,94.42749,15.89167,-6.125,-0.1083333,1
31289,-0.05761719,0.9042969,-0.3828125,3.4790039999999998,8.666992,2.441406,112.0111,0.46691889999999997,95.48218,16.68333,-6.966667,0.008333334000000001,1
31559,-0.0009765625,0.9160155999999999,-0.359375,-2.075195,0.42724609999999996,0.1831055,111.698,1.807251,93.71887,17.85833,-33.08333,14.1,1
31859,-0.05126953,0.9042969,-0.36572269999999996,5.981445,3.4790039999999998,-3.2958979999999998,112.0331,1.219482,94.51538,16.21667,-6.458333,-0.2166667,1
32099,0.01074219,0.9462891,-0.37207029999999996,-12.39014,1.7700200000000001,-0.9765625,110.9839,1.213989,94.37805,15.48333,-5.55,-0.2,1
32379,-0.01269531,0.9316405999999999,-0.3076172,6.347656,3.051758,0.3662109,110.6873,0.9942626999999999,94.95483,16.175,-5.883333,0.7833333,1
32629,-0.0009765625,0.9272461,-0.4223633,-4.760742,-0.12207029999999999,1.220703,111.6156,0.8129883,95.29541,15.925,-6.083333,-0.9500000000000001,1
32929,-0.03271484,0.949707,-0.3193359,0.9765625,1.403809,-1.220703,110.3027,0.8898925999999999,95.97656,15.85833,-5.741667,0.05,1
33239,-0.02294922,0.9521484,-0.3320313,-1.6479489999999999,0.9155272999999999,-1.6479489999999999,110.3137,1.07666,95.64697,15.725,-5.9,0.3416667,1
33469,-0.03173828,0.9536133,-0.3344727,1.525879,2.868652,-0.1831055,110.6433,1.054688,96.15234,16.01667,-5.85,0.2333333,1
33719,-0.001953125,0.9350586,-0.35644529999999996,2.502441,-0.3662109,0.12207029999999999,111.1761,1.098633,95.52612,15.866670000000001,-6.175,0.3833333,1
33959,-0.01367188,0.9360352,-0.3681641,1.525879,3.173828,-0.9765625,111.6211,1.087646,95.84473,15.725,-6.258333,0.2083333,1
34179,-0.022460940000000002,0.9262695,-0.3833008,-0.7324219,-1.342773,0.0,111.9177,1.126099,95.96558,16.91667,-32.975,15.4,1
34439,-0.0078125,0.9248046999999999,-0.3740234,-1.586914,-0.6713867,0.06103516,111.7969,1.159058,95.80078,15.9,-6.25,-0.025,1
34709,-0.03369141,0.9335937999999999,-0.3671875,0.24414059999999999,0.7324219,-0.1831055,111.6815,1.07666,96.03149,16.83333,-33.08333,15.125,1
35019,-0.006347656,0.9384766,-0.34814449999999997,-0.6713867,0.12207029999999999,0.42724609999999996,111.2036,0.9558105,96.20178,15.741670000000001,-6.075,0.0,1
35309,-0.008300781,0.9272461,-0.35693359999999996,0.0,0.793457,-0.3662109,111.1871,0.9667969,96.06445,16.8,-33.36666,14.925,1
35639,-0.03369141,0.9375,-0.3369141,-1.708984,-2.624512,0.8544921999999999,110.9344,0.9613037,96.1084,16.25,-5.733333,0.25,1
35919,-0.01757813,0.9306641,-0.3466797,-0.24414059999999999,-0.793457,0.1831055,110.9454,0.9283446999999999,95.82275,16.88333,-33.55833,14.73333,1
36219,-0.01904297,0.9321288999999999,-0.3525391,0.6103516,-0.1831055,-0.5493163999999999,111.0608,1.010742,95.74585,16.84167,-33.45833,14.73333,1
36579,-0.01953125,0.934082,-0.3544922,-0.12207029999999999,-0.06103516,0.06103516,111.0663,1.071167,95.75684,15.89167,-6.025,0.0,1
36859,-0.01660156,0.9311522999999999,-0.3525391,-0.5493163999999999,0.24414059999999999,0.06103516,110.9509,1.010742,95.75134,15.95,-5.891667,-0.075,1
37169,-0.01464844,0.9345703,-0.3500977,-0.3662109,-0.06103516,0.0,110.8191,0.9448242,95.77332,15.96667,-5.958333,-0.025,1
37439,-0.01806641,0.9350586,-0.34863279999999996,-0.3662109,-0.12207029999999999,-0.12207029999999999,110.7257,0.9722900000000001,95.74036,16.80833,-33.775,14.58333,1
37819,-0.01367188,0.9365234,-0.3354492,-3.601074,1.281738,0.3662109,110.3027,0.9777832,95.77332,16.05,-5.733333,-0.35000000000000003,1
38089,-0.011230470000000001,0.9355469,-0.3344727,-2.01416,-0.793457,0.6103516,109.7754,0.7965088,95.67444,16.025,-5.508333,-0.075,1
38319,-0.01367188,0.9443359,-0.3320313,-0.4882813,0.42724609999999996,0.0,109.6381,0.7196045,95.63599,16.01667,-5.625,-0.1333333,1
38559,-0.01367188,0.9414062999999999,-0.32470699999999997,-0.6713867,-0.3051758,0.3051758,109.4128,0.6756592,95.71289,16.125,-5.5,0.05833333,1
38799,-0.009277344,0.9399413999999999,-0.3266602,0.42724609999999996,-0.3051758,-0.06103516,109.4788,0.6976317999999999,95.625,16.11667,-5.558333,0.15833329999999998,1
39009,-0.01416016,0.9414062999999999,-0.3305664,1.342773,0.24414059999999999,0.24414059999999999,109.704,0.6866455,95.63599,16.1,-5.716667,0.1083333,1
39259,-0.008300781,0.9414062999999999,-0.3349609,0.0,-0.06103516,0.06103516,109.8688,0.5987549,95.51514,16.05,-5.733333,-0.008333334000000001,1
39539,-0.01025391,0.9418945,-0.331543,-0.3662109,-0.1831055,0.06103516,109.7974,0.604248,95.49316,16.51667,-34.225,13.875,1
39839,-0.008300781,0.9404296999999999,-0.3305664,-0.3662109,-0.1831055,0.12207029999999999,109.649,0.5712891,95.48767,16.08333,-5.583333,-0.03333333,1
40149,-0.01074219,0.9423828,-0.3276367,0.12207029999999999,-0.06103516,-0.06103516,109.5886,0.5657959,95.47119,16.49167,-34.44167,13.741670000000001,1
40449,-0.009277344,0.9428711,-0.3310547,0.24414059999999999,-0.12207029999999999,0.0,109.6326,0.5877686,95.44373,16.075,-5.641667,0.008333334000000001,1
40689,-0.05322266,1.002441,-0.3149414,-10.37598,-2.13623,0.06103516,109.3799,0.5987549,95.39978,15.28333,-5.725,0.15833329999999998,1
40959,-0.009277344,0.9331054999999999,-0.3188477,-2.075195,-1.464844,-0.1831055,108.8416,0.7800292999999999,95.224,16.79167,-34.73333,12.866670000000001,1
41269,-0.01220703,0.8666992,-0.29492189999999996,-14.28223,-3.051758,-3.4790039999999998,107.3419,0.9997558999999999,95.7019,15.03333,-4.75,0.5,1
41559,-0.02050781,0.953125,-0.3164063,-2.380371,-1.464844,-0.5493163999999999,107.5397,1.263428,94.96582,17.15833,-35.10833,12.0,1
41879,-0.03320313,0.9550780999999999,-0.27783199999999997,8.361816,-0.4882813,-1.403809,107.5781,1.768799,95.08667,17.63333,-34.56667,12.25833,1
42209,-0.02050781,0.9121094,-0.3071289,13.06152,-4.02832,1.037598,108.3911,2.081909,95.42175,17.075,-5.466667,1.075,1
42529,-0.03759766,0.8920897999999999,-0.3051758,-17.63916,-0.1831055,-1.89209,109.2096,1.653442,96.11389,14.79167,-5.825,1.483333,1
42759,0.006835938000000001,0.9082030999999999,-0.3613281,3.051758,-0.24414059999999999,1.464844,109.9896,1.664429,95.67444,17.2,-33.55833,14.175,1
42999,-0.026367190000000002,0.9189453,-0.3291016,0.7324219,-2.319336,1.220703,109.9347,1.5051269999999999,96.09741,15.69167,-6.091667,1.091667,1
43239,-0.030273440000000002,0.9594727,-0.3540039,3.78418,-2.075195,0.793457,111.0828,1.5051269999999999,95.84473,15.96667,-6.383333,0.05,1
43479,-0.024902340000000002,0.8383788999999999,-0.31054689999999996,-8.544922,1.281738,-2.868652,109.4952,1.571045,96.70166,15.65,-6.066667,1.8333329999999999,1
43749,-0.03857422,0.9794921999999999,-0.3208008,-3.356934,-6.652832,-2.868652,110.4456,1.680908,96.36658,15.00833,-6.225,-0.04166667,1
45069,0.0078125,0.9150391,-0.3457031,-5.249023,1.403809,-2.075195,108.6877,1.8402100000000001,97.95959,16.55833,-33.73333,14.54167,1
45349,-0.01953125,0.9277344,-0.2792969,-4.516602,-4.211426,1.586914,108.2318,0.9558105,98.75061,16.59167,-5.733333,2.55,1
45589,0.02587891,0.8955078,-0.38769529999999996,6.408691,3.356934,0.42724609999999996,109.8853,0.2307129,97.86072,16.3,-5.933333,-1.058333,1
45899,-0.01318359,0.9794921999999999,-0.3374023,9.460449,-3.417969,-0.3051758,109.7534,0.5493163999999999,98.2782,15.54167,-5.425,-0.5,1
46199,-0.0546875,0.9956054999999999,-0.32519529999999996,-11.23047,4.02832,0.6713867,110.05,0.5932617,98.49243,15.56667,-33.85,15.16667,1
46479,0.01757813,0.9458008,-0.3461914,-7.8125,-7.080078,-0.793457,110.1709,0.6921387,97.35535,16.00833,-33.74166,15.14167,1
46769,-0.06689453000000001,1.003906,-0.31835939999999996,-8.117676,5.981445,-1.037598,109.9237,0.6866455,98.18481,14.40833,-5.516667,0.5083333,1
47019,-0.01220703,0.9077147999999999,-0.3369141,-5.004883,-6.225586,0.12207029999999999,109.4183,0.9887695,97.52563,16.14167,-6.141667,0.15833329999999998,1
47329,0.001464844,0.8500977,-0.315918,-0.3662109,-1.281738,-0.4882813,108.1219,0.6976317999999999,98.16284,17.56667,-4.983333,1.191667,1
47629,0.009277344,0.9189453,-0.375,6.286621,8.178711,-1.281738,108.5999,1.224976,97.74536,16.28333,-5.2,-1.408333,1
47939,-0.05566406,1.01416,-0.3007813,7.873535,-3.845215,0.7324219,109.2151,1.274414,98.02002,15.94167,-5.908333,-0.3916667,1
48169,0.009765625,0.9482421999999999,-0.3554688,2.13623,6.530762,1.159668,108.9954,1.279907,97.50916,15.65833,-5.141667,-0.9333332999999999,1
48389,-0.02197266,1.000488,-0.30908199999999997,4.211426,-4.211426,1.037598,109.6326,1.010742,97.65198,16.175,-34.0,14.7,1
48629,0.02001953,0.9331054999999999,-0.34960939999999996,-6.103516,-3.417969,-0.6103516,109.2371,1.213989,97.1521,15.98333,-6.091667,-0.04166667,1
48839,-0.01904297,0.9169921999999999,-0.3286133,6.835938,-0.8544921999999999,-0.4882813,108.5229,0.8569336,97.90466,16.85,-5.266667,0.24166669999999998,1
49099,0.008300781,0.9311522999999999,-0.32470699999999997,-3.967285,-5.67627,-0.3051758,108.6383,1.153564,96.95984,16.75833,-5.875,-0.2666667,1
49299,-0.026367190000000002,0.9418945,-0.3056641,9.765625,0.12207029999999999,-0.6713867,108.2428,1.016235,97.39929,16.18333,-34.38334,13.866670000000001,1
49579,0.01171875,0.9409179999999999,-0.3354492,-1.281738,0.5493163999999999,-1.159668,108.5504,1.230469,97.11365,16.375,-5.425,-0.05833333,1
49849,-0.024902340000000002,0.9580078,-0.3139648,9.887695,-4.089355,1.281738,109.0338,1.109619,97.32788,16.48333,-5.541667,0.6083333,1
50089,0.03076172,0.9375,-0.34130859999999996,-2.563477,-0.6713867,-1.037598,109.6161,1.2854,96.49292,16.1,-6.041667,0.1083333,1
50309,-0.02001953,0.8925780999999999,-0.3237305,7.995605,-1.525879,0.42724609999999996,109.8138,0.9063721,97.82776,16.08333,-33.5,15.25,1
50579,0.01904297,0.9296875,-0.3662109,-3.356934,-6.225586,0.24414059999999999,110.5389,1.274414,96.52039,16.05833,-6.7,-0.1666667,1
50819,0.0,0.8671875,-0.2885742,5.065918,-2.13623,-1.342773,109.1656,1.241455,97.14111,16.475,-33.725,14.53333,1
51129,-0.01806641,0.9589844,-0.36523439999999996,1.464844,6.530762,0.7324219,110.116,1.219482,97.27844,16.36667,-33.43333,15.1,1
51399,-0.02685547,0.9375,-0.3354492,6.04248,-1.7700200000000001,0.0,110.3851,0.9173583999999999,97.73987,16.05,-5.933333,-0.01666667,1
51659,0.009765625,0.921875,-0.3613281,0.4882813,1.89209,-0.3051758,110.8026,0.9832763999999999,96.87195,15.741670000000001,-6.083333,0.24166669999999998,1
51949,-0.01953125,0.9296875,-0.3554688,0.8544921999999999,-0.8544921999999999,0.793457,110.8301,0.9283446999999999,97.45972,14.925,-6.341667,-0.44166669999999997,1
52299,-0.004394531,0.9384766,-0.3769531,2.13623,-3.662109,-0.24414059999999999,110.7367,0.8239746,96.92688,16.14167,-5.958333,-0.275,1
52499,-0.06787109,0.9760742,-0.30175779999999996,-4.272461,-2.502441,0.7324219,110.4675,0.7910155999999999,96.94885,16.2,-33.5,15.03333,1
52739,-0.017089840000000002,0.9594727,-0.31005859999999996,-3.356934,-0.9155272999999999,-0.24414059999999999,110.2258,0.9173583999999999,96.87744,16.33333,-33.775,14.73333,1
52989,-0.0234375,0.9433594,-0.33398439999999996,-3.234863,0.0,0.4882813,109.8083,0.8459473,96.57532,15.975,-5.725,-0.225,1
53259,-0.05810547,0.9741211,-0.27783199999999997,-4.02832,-2.13623,0.3051758,108.8525,1.043701,96.44897,16.4,-34.35,13.60833,1
53499,-0.02783203,0.9467772999999999,-0.3037109,-2.258301,-1.525879,0.42724609999999996,108.6877,1.148071,96.32263,16.04167,-5.383333,0.0,1
53719,-0.015136720000000001,0.9511719,-0.3144531,0.793457,0.3051758,1.281738,108.6438,0.9887695,96.07544,16.18333,-5.308333,0.09166667,1
53969,-0.009765625,0.9453125,-0.3208008,0.9155272999999999,0.06103516,0.5493163999999999,108.891,0.6921387,96.03699,16.15833,-5.433333,0.09166667,1
54269,-0.008300781,0.9448242,-0.3193359,0.3051758,0.06103516,0.0,109.0448,0.6427001999999999,96.03699,16.15,-5.533333,-0.01666667,1
54549,-0.008300781,0.9458008,-0.31835939999999996,0.3051758,0.06103516,-0.1831055,109.0503,0.6591796999999999,96.05347,16.15,-5.458333,0.01666667,1
54789,-0.011230470000000001,0.9443359,-0.3208008,0.5493163999999999,-0.3051758,-0.12207029999999999,109.1437,0.7196045,96.03699,16.10833,-5.5,0.1,1
55059,-0.01269531,0.9414062999999999,-0.3237305,0.793457,-0.24414059999999999,-0.12207029999999999,109.281,0.7635498,95.99854,16.15,-5.625,0.1083333,1
55289,-0.011230470000000001,0.9428711,-0.3295898,1.159668,-0.3051758,-0.3051758,109.5996,0.8129883,95.95459,16.15,-5.766667,0.008333334000000001,1
55549,-0.015625,0.9355469,-0.33349609999999996,-1.281738,-1.586914,0.7324219,109.4843,0.7415771,95.74036,16.34167,-34.24166,14.10833,1
55939,-0.004882813000000001,0.9389647999999999,-0.33251949999999997,1.220703,-1.281738,-2.13623,109.6326,0.8349609,95.87769,16.55,-5.6,-1.125,1
56219,-0.01904297,0.9409179999999999,-0.3041992,5.67627,3.112793,-0.3051758,107.8857,1.40625,94.99878,16.975,-4.966667,-0.05,1
56529,-0.01318359,0.953125,-0.3129883,4.882813,-1.89209,0.24414059999999999,108.4296,1.2854,95.21301,16.10833,-5.491667,0.35000000000000003,1
56729,-0.02392578,0.9418945,-0.32617189999999996,2.685547,0.6713867,0.06103516,109.2041,1.3348389999999999,94.99878,17.09167,-34.25,13.53333,1
56969,-0.0234375,0.9409179999999999,-0.3305664,1.098633,-0.3051758,0.3662109,109.5612,1.296387,95.00427,16.14167,-5.75,0.04166667,1
57239,-0.01171875,0.9462891,-0.33300779999999996,-0.6103516,-0.06103516,0.3662109,109.5996,1.224976,94.9823,16.06667,-5.516667,-0.2583333,1
57449,-0.02587891,0.9272461,-0.3369141,1.281738,-1.098633,-0.24414059999999999,109.3689,1.257935,95.02075,15.94167,-5.958333,0.425,1
57669,-0.03710938,0.9467772999999999,-0.3320313,0.24414059999999999,1.037598,0.6713867,109.9457,1.010742,95.36682,16.14167,-5.775,-0.08333334,1
57919,-0.03564453,0.9658203,-0.27880859999999996,-4.821777,-0.6713867,0.6713867,109.3689,1.060181,96.00952,15.7,-5.775,0.2333333,1
58219,-0.015136720000000001,0.9345703,-0.3212891,1.342773,-2.990723,1.953125,109.3689,0.7415771,95.71289,16.19167,-5.6,0.6583333,1
58469,0.008300781,0.9316405999999999,-0.3554688,-0.24414059999999999,-1.6479489999999999,1.525879,109.9622,0.368042,94.69116,16.24167,-34.23333,13.89167,1
58779,-0.002441406,0.9409179999999999,-0.32617189999999996,-1.220703,-0.9155272999999999,-0.06103516,109.5721,0.2307129,94.52087,16.25,-34.40833,13.41667,1
59049,-0.0034179690000000003,0.9409179999999999,-0.3305664,-0.06103516,-1.708984,-0.5493163999999999,109.4513,0.368042,94.2572,16.06667,-5.65,-0.06666667,1
59289,-0.01757813,0.9472655999999999,-0.32617189999999996,1.6479489999999999,-1.708984,-0.9765625,109.5776,0.7525634999999999,93.88916,17.04167,-34.5,13.11667,1
59629,-0.02197266,1.002441,-0.3066406,-40.1001,-6.774902,-2.13623,103.5352,1.543579,92.94983,17.23333,-4.291667,-8.2,1
59889,-0.02294922,1.042969,0.08007813,-76.59912,24.10889,-15.93018,83.30933,3.328857,94.71863,19.15,-43.95,-7.733333,1
60199,-0.20556639999999998,0.7890625,0.41943359999999996,-42.11426,9.94873,1.7700200000000001,65.61035,8.074951,98.47595,13.59167,7.45,-0.7666666999999999,1
60539,-0.1386719,0.8574219,0.34375000000000006,40.2832,-8.056641,16.41846,67.72522,4.828491,99.54163,14.425,5.1,5.9,1
61919,-0.3125,0.9550780999999999,0.12695309999999999,-4.516602,29.66309,7.751465,79.51355,8.569336,145.014,16.19167,1.283333,-0.125,1
62249,-0.13525389999999998,0.9169921999999999,0.03271484,-6.896973,-23.31543,10.68115,77.11304,5.449219,144.1901,18.86667,3.516667,5.258333,1
62479,-0.13525389999999998,0.9169921999999999,0.03271484,-6.896973,-23.31543,10.68115,77.11304,5.449219,144.1901,16.50833,2.283333,0.775,1
62679,0.03125,1.001465,0.16699219999999998,-8.789063,67.13867,15.44189,83.69934,5.712891,153.4406,16.88333,1.2,-1.125,1
62879,-0.041015630000000004,1.000977,-0.06152344,-27.16064,40.71045,5.615234,82.50183,4.421997,163.8995,15.21667,-0.08333334,-1.8666669999999999,1
63089,-0.1025391,1.14209,0.06738281,3.540039,39.85596,17.76123,80.13977,3.828735,172.7161,22.85833,6.541667,-2.525,1
63309,-0.2324219,0.8999022999999999,0.2436523,4.516602,2.01416,-28.74756,77.76672,1.604004,-178.5168,-20.875,-50.68333,-0.008333334000000001,1
63549,-0.2617188,0.8735352,0.1103516,1.586914,-31.12793,7.995605,77.75574,2.977295,-179.2859,15.36667,3.45,-0.15,1
63799,-0.4697266,0.8833008,0.3920898,16.41846,31.49414,-24.96338,80.56824,2.785034,173.4576,18.81667,3.708333,0.3916667,1
64099,0.060546880000000004,0.8901367,0.1918945,3.601074,22.82715,20.44678,82.38098,1.999512,171.0242,15.45833,2.308333,-1.541667,1
64309,0.03125,0.9365234,0.09326172,-16.35742,17.27295,-7.873535,79.66736,1.604004,175.4736,16.70833,0.1,1.05,1
64529,0.06933594,1.033691,0.4145508,-13.00049,27.22168,58.28857,80.36499,-0.6591796999999999,-170.5243,-28.525,-49.175,3.108333,1
64809,-0.1132813,0.9213867,0.07373047,-8.239746,-65.979,-26.00098,80.26062,0.9887695,-176.8359,-21.85,-50.24166,5.808333,1
65099,0.01220703,0.8574219,0.2080078,3.78418,-50.1709,11.53564,76.94824,-0.703125,169.4531,21.14167,-1.25,3.383333,1
65339,0.4780273,1.164551,0.2246094,30.09033,-37.90283,-4.089355,81.75476,2.296143,157.2528,16.41667,3.6,0.975,1
65619,-0.03613281,0.8642578,0.05029297,-15.86914,38.51318,-6.225586,80.34302,-0.7086182,166.9208,-14.71667,-49.70833,9.358334,1
65929,0.09863281,1.140137,-0.03613281,12.69531,63.65967,9.765625,78.42041,1.4556879999999999,177.6709,21.625,4.05,0.49166669999999996,1
66169,-0.19384769999999998,1.01416,0.19726559999999999,0.8544921999999999,-6.347656,-11.1084,79.32678,-2.5927729999999998,-166.377,15.54167,1.65,-0.7000000000000001,1
66479,-0.1035156,0.8701171999999999,0.03515625,-13.61084,-54.44336,8.972168,76.87134,-1.5271000000000001,179.7638,18.85833,-1.766667,2.15,1
66719,0.1831055,1.063965,0.2509766,9.94873,-49.80469,-5.004883,80.82092,3.015747,169.173,-12.89167,-47.2,11.30833,1
66959,-0.05517578,0.9389647999999999,0.05908203,-9.887695,26.48926,8.666992,81.04614,-0.4284668,173.1665,15.29167,0.8250000000000001,-2.975,1
67199,0.006835938000000001,0.9370117,0.06005859,-15.68604,64.33105,-2.441406,76.60217,1.351318,179.0112,16.975,-1.45,0.15833329999999998,1
67399,-0.6972655999999999,1.566895,0.8808594,-6.774902,64.33105,41.3208,76.7395,2.5872800000000002,-166.5582,15.60833,6.0,-5.05,1
67619,-0.10644529999999999,0.9018554999999999,0.171875,5.126953,-35.03418,-18.24951,75.30579,2.905884,-164.5422,-25.65,-47.41667,0.2166667,1
67909,-0.08496094,0.8193359,0.02783203,11.35254,-67.87109,10.98633,74.38293,1.175537,-173.6334,17.39167,-0.31666669999999997,2.891667,1
68149,0.3432617,0.8666992,0.25439449999999997,-0.1831055,-54.13818,-12.20703,80.02991,0.1153564,169.0082,17.01667,1.6,0.2166667,1
68549,0.125,0.8964844,-0.04833984,-13.12256,61.03516,-1.098633,78.53577,-1.977539,170.4309,-17.1,-46.24166,7.308333,1
68859,-0.2573242,0.9687500000000001,0.2182617,1.464844,26.12305,5.7983400000000005,79.08508,-6.05896,-170.7385,17.98333,0.8416665999999999,-1.1,1
69159,-0.1362305,0.9165038999999999,0.0009765625,-16.17432,-60.66895,-6.9580079999999995,77.66235,-1.494141,-179.0826,-20.1,-47.10833,5.1,1
69459,-0.32617189999999996,1.172363,0.296875,42.66357,-21.30127,-62.19482,79.73877,2.444458,165.8826,-9.15,-47.35833,8.108334,1
69729,-0.0703125,0.8251953,0.1376953,-19.47021,50.59814,12.57324,79.9585,-0.4174805,171.2329,16.14167,1.016667,-2.133333,1
69979,0.2182617,1.36377,-0.12402339999999999,62.80518,48.88916,0.9155272999999999,76.26709,2.823486,-178.5883,17.75,7.425,-1.475,1
70289,-0.1533203,0.8637695,0.20507809999999999,-2.319336,-38.63525,-20.99609,76.745,0.6756592,-168.327,16.31667,1.633333,0.9500000000000001,1
70589,0.1103516,0.9208984,0.1884766,-26.9165,-40.52734,14.16016,73.76221,-3.691406,177.4237,20.34167,-1.733333,2.391667,1
70889,0.2841797,1.200195,0.2026367,39.73389,-11.35254,3.78418,76.64612,1.175537,173.584,15.44167,3.725,0.7833333,1
71229,0.08984375,0.9150391,-0.0546875,-17.45605,41.3208,-7.69043,75.98694,0.09338379000000001,-173.996,19.06667,2.941667,0.17500000000000002,1
71439,-0.3110352,1.435547,0.3837891,-1.525879,9.277344,49.07227,76.15723,0.2911377,-166.2122,14.61667,6.875,-5.325,1
71649,-0.08642578000000001,0.8544921999999999,0.1450195,1.403809,-39.48975,-10.00977,75.65735,-1.241455,-165.7617,-27.41667,-47.58333,3.0,1
71889,-0.1650391,0.8901367,0.06152344,-7.751465,-61.52344,10.31494,74.36646,-3.598022,-174.6716,-23.4,-47.56667,5.908333,1
72129,-0.49121089999999995,0.8911133,0.45947269999999996,16.96777,-18.67676,-25.39063,76.81641,0.7305908,-178.4399,15.33333,2.283333,-1.625,1
72379,0.09228516,0.8613280999999999,0.13525389999999998,12.63428,44.06738,18.55469,78.67859,-1.472168,-176.5448,16.275,0.15,-0.7333333,1
72599,-0.04785156,0.9160155999999999,-0.1054688,12.51221,0.0,-2.929688,73.927,2.345581,-166.6406,23.20833,9.641666,-0.775,1
72869,-0.15820309999999999,0.8237304999999999,0.215332,22.58301,-37.53662,-29.05273,74.12476,0.2252197,-156.2146,-28.775,-46.5,0.47500000000000003,1
73139,-0.01416016,0.8813477,-0.06201172,5.7983400000000005,-56.7627,5.859375,74.52026,0.4779053,-168.5303,16.61667,3.016667,0.9500000000000001,1
73389,-0.5639647999999999,0.9062500000000001,0.30908199999999997,38.69629,-49.37744,-30.27344,78.26111,3.625488,178.374,-13.05,-45.44167,10.45,1
73689,0.05419922,0.8623046999999999,-0.04541016,-32.77588,48.40088,-4.211426,77.99194,0.8898925999999999,-177.3578,20.18333,3.75,-0.03333333,1
74009,-0.13476559999999999,0.8813477,0.3549805,-48.58398,96.86279,9.216309,75.58594,-1.203003,-163.7292,14.93333,3.483333,0.5,1
74289,-0.1713867,0.8535155999999999,0.06787109,-12.57324,-45.6543,2.807617,72.26257,1.3623049999999999,-163.5699,-24.65,-47.45,0.675,1
74559,-0.2695313,1.3198239999999999,-0.1401367,24.96338,-29.84619,-17.8833,72.20215,-3.817749,-173.0017,15.91667,7.125,-0.01666667,1
74819,-0.005859375,0.8041992,0.22949219999999998,-3.78418,53.77197,29.96826,75.00916,0.4119873,-173.1171,13.56667,1.941667,-1.6,1
75119,-0.2504883,0.9516602,-0.04052734,17.8833,-23.19336,-3.723145,70.58167,3.554077,-162.4384,22.74167,9.675,-0.6666667,1
75489,-0.1230469,0.8242187999999999,0.125,5.92041,-41.99219,-11.16943,71.98792,0.9558105,-157.5439,-27.95,-47.81667,-1.983333,1
75749,0.06738281,1.199219,-0.1694336,28.62549,-36.07178,-12.3291,73.19092,-2.856445,-168.2556,22.45833,8.958333,-0.2333333,1
75999,-0.08300781,0.7368163999999999,0.1254883,-9.094238,9.94873,13.18359,76.05835,-0.2307129,-174.3805,-20.20833,-47.83333,5.241667,1
76239,0.1254883,0.8886719,-0.002929688,-22.76611,24.96338,-25.45166,73.72925,1.593018,-171.4581,16.80833,3.6,-1.016667,1
76479,0.33398439999999996,0.7221679999999999,0.3071289,0.0,14.70947,23.13232,72.44385,-0.37353519999999996,-163.0865,-25.20833,-48.43333,0.2583333,1
76729,-0.1259766,0.9765625,0.1674805,10.68115,-67.26074,-13.85498,75.23438,0.3405762,-166.1243,13.70833,0.7666666999999999,-0.1666667,1
76999,-0.11083979999999999,0.762207,0.026367190000000002,-4.821777,-67.19971,13.61084,74.42688,-2.444458,-179.0387,20.69167,-4.833333,-0.1666667,1
77219,0.15478519999999998,1.335938,0.02783203,-19.47021,25.57373,22.27783,76.77246,2.735596,169.0851,-10.3,-47.74166,7.241667,1
78599,0.1674805,1.121582,0.09960938,-0.5493163999999999,-8.911133,8.422852,75.58594,1.658936,172.1832,14.89167,2.791667,-0.3416667,1
78829,0.030273440000000002,0.8491211,0.015136720000000001,-38.26904,35.7666,-13.67188,71.69128,1.851196,-176.9568,17.49167,-3.558333,6.275,1
79109,-0.4492188,0.9418945,0.2275391,2.075195,11.16943,-17.57813,72.63611,-1.856689,-165.932,-22.36667,-45.80833,2.366667,1
79379,0.01953125,0.9462891,0.07666016,-3.967285,-48.40088,-7.202148,74.36096,-0.736084,-176.1768,14.25833,0.31666669999999997,-2.241667,1
79649,0.2871094,1.340332,0.5585938,10.49805,27.46582,-74.03564,75.2124,-1.450195,173.2544,19.99167,5.175,4.241667,1
79919,-0.08300781,0.8510742,0.1132813,-8.483887,69.03076,19.04297,74.64111,0.7141113,-175.4846,-17.09167,-46.48333,3.925,1
80199,-0.28662109999999996,0.9804687999999999,0.1933594,-3.540039,55.05371,0.06103516,71.37817,4.075928,-162.345,22.74167,4.691667,1.183333,1
80449,-0.2236328,0.8613280999999999,0.24121089999999998,19.16504,-25.87891,-23.62061,73.71277,1.213989,-148.5461,14.19167,2.291667,0.7333333,1
80749,0.08300781,1.002441,0.3422852,0.0,-44.37256,7.568359,71.10352,-0.4504395,-166.6956,26.55833,2.85,4.95,1
81119,-0.06396484,0.8818359,0.08105469,-3.234863,17.82227,12.63428,77.61841,2.142334,-174.9023,-15.525,-46.28333,6.2,1
81379,0.09277344,0.8417969,0.09960938,-31.98242,70.98389,-3.540039,72.15271,3.729858,-167.9095,30.175,-4.375,6.85,1
81629,-0.3837891,1.03125,0.24560549999999998,-2.563477,16.23535,-21.91162,72.8833,-1.636963,-162.6471,-23.60833,-46.88334,1.016667,1
81869,-0.05322266,0.9208984,0.03125,5.310059,-43.396,-1.403809,74.71252,0.14282229999999999,-168.717,12.866670000000001,0.04166667,0.2833333,1
82109,0.05957031,1.17334,0.3818359,-3.234863,-0.9765625,-63.5376,77.04163,1.159058,-179.9451,-13.2,-46.7,7.05,1
82359,0.00390625,0.8007812999999999,0.12255859999999999,5.065918,54.80957,25.26855,78.12378,2.460938,-176.5668,15.05833,0.8250000000000001,-1.5,1
82639,0.022460940000000002,0.8769530999999999,-0.04345703,-20.38574,24.84131,-13.5498,75.82214,3.444214,-167.4097,16.50833,3.241667,-0.3833333,1
82849,-0.2324219,1.358398,0.24560549999999998,4.699707,35.15625,40.77148,75.83313,3.109131,-161.2024,15.375,6.166667,-3.05,1
83059,-0.06640625,0.8603516,0.08398438,1.7700200000000001,-52.79541,-24.84131,75.50354,0.9173583999999999,-165.2234,15.675,0.04166667,-2.208333,1
83339,-0.2353516,1.512207,-0.04541016,13.73291,-47.24121,-43.82324,74.80591,-0.9942626999999999,-178.4454,-13.35,-47.3,6.591667,1
83609,-0.04980469,0.9824219,0.1416016,1.159668,-5.126953,15.44189,77.42065,4.372559,174.4409,15.06667,2.166667,0.25,1
83879,0.01318359,0.7446288999999999,0.06835938,-13.61084,84.41162,4.943848,73.02612,3.647461,-175.545,28.0,2.25,2.4,1
84149,-0.2480469,0.8251953,0.3076172,-7.629395,-8.178711,-22.76611,72.43286,-0.9008788999999999,-167.558,-19.66667,-46.9,3.125,1
84459,-0.15136719999999998,0.8251953,0.05566406,-2.13623,-57.18994,14.70947,71.80115,-3.147583,177.6434,-13.75833,-46.925,4.741667,1
84729,-0.6440429999999999,0.8144530999999999,0.4711914,3.540039,16.35742,-60.72998,74.98718,1.8731689999999999,172.6996,16.725,3.166667,0.0,1
84979,-0.13525389999999998,0.9233397999999999,-0.006347656,-23.80371,50.04883,3.662109,76.28357,2.026978,-178.7201,12.85833,2.416667,-0.725,1
85319,-0.04785156,1.027344,0.5249022999999999,-23.86475,10.00977,56.88477,74.77844,1.021729,-167.5031,18.2,4.683333,1.383333,1
85619,-0.044921880000000004,0.8627929999999999,0.08544922,-6.286621,-57.31201,-13.85498,74.90479,1.422729,-176.1987,14.60833,0.3416667,-2.683333,1
85869,0.671875,1.45752,0.7558594,15.31982,-3.723145,-78.85742,74.04785,-1.274414,169.1785,-5.583333,-46.4,4.616667,1
86099,0.02685547,0.796875,0.2182617,11.90186,39.79492,26.18408,76.36597,1.8457029999999999,166.7999,13.8,2.341667,-1.3333329999999999,1
86359,-0.29345699999999997,1.165527,0.1699219,5.859375,25.87891,1.586914,73.32825,3.4002689999999998,-179.3243,20.775,4.883333,-2.641667,1
86679,-0.2646484,0.8847655999999999,0.1806641,25.93994,-25.08545,-26.06201,74.95972,0.5438232,-167.8656,-17.525,-45.875,4.325,1
86929,-0.03222656,0.9189453,0.01855469,-16.23535,-48.58398,-7.69043,75.66833,2.219238,-178.3466,13.68333,3.175,-2.133333,1
87179,-0.23632809999999999,0.8398437999999999,0.49023439999999996,-10.80322,3.78418,-48.64502,75.1355,3.609009,171.0846,19.18333,3.291667,1.791667,1
87479,-0.02734375,0.8300780999999999,0.21875000000000003,13.67188,-11.23047,12.08496,76.65161,4.196777,165.3607,15.1,1.441667,-0.275,1
87719,-0.2236328,1.145996,-0.03613281,16.6626,12.3291,6.04248,73.95996,5.158081,172.2327,22.01667,7.975,-0.05,1
87959,-0.2763672,0.7919921999999999,0.20605469999999998,21.60645,-40.58838,-23.80371,76.00342,0.7305908,176.1603,-8.483334,-45.95,5.975,1
88269,-0.07861328000000001,0.8701171999999999,0.01904297,-12.39014,-46.32568,6.408691,75.74524,0.9832763999999999,165.1575,16.1,2.233333,2.158333,1
88539,-0.3232422,0.8740234,0.4707031,-2.502441,-9.155273,-54.38232,77.32727,3.7683109999999997,154.7644,15.90833,3.208333,0.8250000000000001,1
88779,-0.1762695,0.8461913999999999,0.09960938,-32.89795,39.85596,-2.990723,76.99768,1.994019,163.559,-1.566667,-45.33333,5.841667,1
89089,0.1796875,1.724121,-0.17871089999999998,20.87402,9.82666,24.90234,75.17944,3.938599,167.8766,11.73333,8.966666,-1.491667,1
89339,-0.09472656,0.793457,0.15869139999999998,19.28711,-14.52637,-18.85986,75.00366,0.9393311,172.5073,14.9,2.5,-1.491667,1
89599,-0.18603519999999998,1.178223,-0.2236328,31.37207,-9.887695,-2.319336,75.20691,-0.3515625,163.3667,17.11667,7.258333,1.241667,1
89979,-0.03710938,0.8310546999999999,0.04345703,-8.483887,17.8833,5.126953,78.52478,3.7683109999999997,160.1093,1.841667,-43.68333,6.741667,1
90209,-0.3774414,1.084961,0.1967773,-3.78418,3.540039,5.065918,73.60291,5.6524659999999995,165.4541,20.725,8.25,-1.533333,1
90489,-0.23632809999999999,1.004395,0.3540039,-18.61572,31.92139,2.197266,74.80042,-1.159058,165.7452,13.21667,3.241667,1.275,1
90699,-0.06884766,0.9082030999999999,0.06884766,5.493164,-52.55127,-9.399414,75.97595,1.005249,160.0598,14.125,-0.03333333,-2.458333,1
90909,0.22900389999999998,1.4082029999999999,0.4643555,-2.13623,18.18848,-69.2749,76.32202,0.03295898,147.854,6.275,-44.1,2.9333329999999997,1
91159,-0.03613281,0.8120117,0.2036133,11.04736,5.371094,26.67236,77.02515,4.411011,144.4208,14.30833,1.766667,-0.5833332999999999,1
91399,-0.22167969999999998,1.044434,0.32568359999999996,-0.6103516,42.66357,-1.953125,73.64136,4.855957,153.8086,23.425,2.058333,-1.008333,1
91709,-0.3344727,0.9399413999999999,0.2509766,15.93018,8.605957,-20.1416,76.07483,-0.4779053,164.2841,-3.183333,-45.75834,5.5,1
92019,-0.04248047,0.9335937999999999,0.041015630000000004,-39.85596,-48.58398,15.19775,75.70129,0.04943848,149.436,18.93333,-3.5,2.083333,1
92339,-0.04296875,1.089844,0.3115234,5.126953,-38.87939,-24.4751,75.87158,5.630493,140.7953,14.04167,3.758333,1.533333,1
92609,-0.01757813,0.887207,0.01074219,-24.53613,12.51221,-10.74219,76.50879,3.378296,149.87,5.308333,-45.49166,3.45,1
92889,-0.004882813000000001,1.252441,0.2148438,-30.45654,38.51318,42.66357,76.44287,4.691162,154.8633,13.80833,7.7,-0.9666665999999999,1
93129,-0.109375,0.8901367,0.1176758,8.544922,-69.33594,-24.4751,77.7832,2.2796629999999998,153.3417,3.491667,-45.74166,4.958333,1
93429,-0.28125,1.370605,-0.05322266,20.69092,-25.93994,-38.08594,75.16296,0.3900146,141.1963,13.48333,8.4,-0.65,1
93769,0.04345703,0.890625,0.12451169999999999,3.4790039999999998,-5.7983400000000005,21.72852,80.78247,4.405518,132.0941,16.50833,-0.65,-2.8,1
94049,0.2280273,1.300781,-0.21386719999999998,55.48096,0.3051758,13.73291,75.5365,4.801025,140.0482,13.28333,6.875,-1.183333,1
94379,-0.2695313,0.8618163999999999,0.2075195,18.24951,-23.86475,-23.4375,77.20642,1.752319,146.2006,14.10833,1.475,0.6166667,1
95799,-0.060546880000000004,0.8618163999999999,0.03710938,-7.629395,-53.83301,-6.469727,75.96497,3.878174,128.7268,14.79167,3.025,0.4583333,1
95989,-0.1533203,1.586914,0.03271484,31.61621,-40.2832,-49.19434,76.21765,1.19751,119.9377,13.38333,7.875,0.275,1
96209,0.03955078,0.8134766,0.1572266,-10.00977,32.71484,16.41846,79.67834,4.77356,114.3127,22.675,-38.08333,-3.758333,1
96459,-0.01025391,0.7553711,0.04833984,-35.70557,49.07227,-4.516602,74.13025,6.657715,120.6958,27.8,-0.8333332999999999,6.241667,1
96719,-0.2617188,0.8388671999999999,0.4960938,-10.13184,0.9765625,60.97412,77.21741,2.625732,125.7001,17.76667,4.458333,-0.675,1
96929,-0.27001949999999997,0.7368163999999999,0.1757813,7.568359,-77.02637,-37.59766,77.77771,1.9885249999999999,123.9752,15.0,1.05,-1.058333,1
97149,-0.29394529999999996,1.128906,-0.2431641,18.31055,-47.72949,0.6103516,74.52026,-1.483154,104.8041,22.09167,-40.275,-13.13333,1
97399,0.1889648,1.350098,0.15625,12.87842,-26.7334,-24.59717,76.78894,4.075928,95.72388,14.2,3.7,-0.31666669999999997,1
97639,-0.015625,0.8969727,0.06835938,-40.40527,49.56055,-9.58252,74.59717,2.817993,109.5502,17.65,4.858333,-0.40833329999999995,1
97969,0.03662109,0.9526367,0.44287109999999996,-19.59229,64.7583,26.9165,72.84485,0.604248,121.4484,13.38333,5.291667,3.816667,1
98249,-0.06884766,0.8896484,0.004394531,13.61084,-38.51318,3.90625,75.88806,2.373047,116.9,20.46667,-39.63334,-5.475,1
98519,-0.12744139999999998,1.40625,-0.04150391,20.69092,-5.7983400000000005,-28.32031,73.41064,0.3131104,111.3464,13.10833,9.758333,-0.5916667,1
98759,0.11621089999999999,1.166504,0.1923828,18.43262,-31.79932,-12.81738,76.20117,7.476196,108.8306,14.59167,3.741667,1.7083329999999999,1
98999,0.12060549999999999,0.8720703,0.01074219,-35.64453,44.92188,-1.586914,75.4541,6.564331,110.9399,18.20833,0.225,2.1,1
99309,-0.1318359,0.8437500000000001,0.4145508,-24.84131,48.82813,11.41357,75.99243,1.054688,116.911,15.05833,3.666667,3.2,1
99619,-0.1171875,0.8608397999999999,0.04785156,-8.544922,-34.60693,-2.624512,75.75073,3.24646,109.5886,15.51667,1.266667,-2.225,1
99889,0.05957031,0.918457,0.4394531,-5.432129,38.20801,-50.41504,76.09131000000001,5.83374,100.8051,24.00833,2.491667,2.391667,1
100229,-0.1459961,0.8330078,0.07177734,-5.432129,24.29199,5.249023,77.93152,5.822754,105.9247,16.275,-1.191667,-1.9000000000000001,1
100429,-0.07763672,0.9956054999999999,0.14697269999999998,-7.873535,38.45215,4.699707,75.16846,7.745361,110.2039,26.58333,4.791667,-3.958333,1
100659,-0.28613279999999996,0.9628905999999999,0.2583008,15.19775,6.225586,-17.15088,74.59167,3.2958979999999998,116.9659,20.65833,-39.10833,-6.966667,1
100919,-0.08544922,0.8383788999999999,0.1044922,-3.78418,-53.71094,-14.03809,74.63013,5.822754,105.7489,14.46667,0.85,-0.5916667,1
101159,-0.06689453000000001,1.075684,-0.1030273,14.16016,-32.04346,-0.4882813,72.85034,1.983032,96.74011,17.675,7.225,0.025,1
101369,-0.01953125,0.8491211,0.1845703,-4.943848,28.07617,26.85547,77.27783,6.536865,91.10413,27.15,-34.09167,-17.975,1
101619,-0.08007813,0.8999022999999999,-0.0234375,-35.64453,45.04395,-11.90186,74.99268000000001,6.075439,99.7229,17.58333,1.6,-0.06666667,1
101879,-0.06103516,0.9638671999999999,0.41210939999999996,-18.24951,51.87988,18.73779,74.26208,1.785278,108.9679,21.25,-40.11666,-10.675,1
102139,-0.06494141,0.8579102,0.105957,3.4790039999999998,-62.74414,-16.23535,76.4978,4.658203,103.9252,14.08333,0.5416667,-0.8,1
102399,-0.2167969,1.328613,-0.03320313,23.19336,-35.5835,-29.84619,73.08105,0.6317138999999999,91.12061,24.76667,-36.81667,-21.65833,1
102699,0.024902340000000002,0.8974609,0.23632809999999999,-7.93457,48.88916,29.84619,75.32227,4.905396,88.88489,14.025,2.175,-0.6083333,1
102999,-0.105957,0.9980469,-0.03662109,12.45117,-1.8310549999999999,0.0,72.62512,5.932617,100.0745,25.41667,-36.95833,-14.26667,1
103309,-0.05322266,0.8764647999999999,0.22900389999999998,11.90186,-43.21289,-18.98193,76.4209,1.466675,108.8635,13.85,0.7333333,1.008333,1
103639,0.03808594,1.084473,-0.02001953,-2.197266,9.887695,5.981445,72.35046,-0.269165,93.62549,20.075,11.4,-0.7083332999999999,1
103919,0.022460940000000002,0.9853516,0.2578125,11.90186,52.4292,29.54102,75.78918,6.141357,90.00549,12.025,2.658333,-0.5083333,1
104249,-0.14306639999999998,1.044434,0.1791992,-1.342773,29.05273,-12.39014,73.09753,6.762085,102.9694,23.20833,-1.541667,-0.5083333,1
104519,-0.5346679999999999,1.083008,0.2226563,10.55908,33.5083,-15.50293,74.76746,3.702393,115.0049,15.45833,2.458333,2.658333,1
104899,-0.04394531,1.274414,-0.1601563,24.59717,-14.4043,-13.00049,72.78442,3.284912,98.54187,17.075,8.466666,0.125,1
105189,0.2167969,1.450195,0.0859375,17.63916,-24.4751,-15.93018,75.47607,9.920654,91.49414,16.23333,3.291667,0.47500000000000003,1
105399,-0.1713867,0.8442383,0.1318359,-14.52637,37.90283,1.525879,75.45959,7.267456,99.99756000000001,14.25,-1.016667,-4.866667,1
105609,-0.5761719,1.389648,0.6347655999999999,-6.896973,-0.24414059999999999,80.87158,74.26208,5.048218,108.1439,19.51667,-42.11666,-5.883333,1
105849,-0.1030273,0.8046875,0.18994139999999998,22.09473,-55.35889,-20.38574,76.23413,4.213257,110.2643,14.88333,1.433333,1.1,1
106099,-0.1015625,0.9638671999999999,-0.05371094,-37.53662,-78.36914,7.202148,73.73474,2.416992,97.03674,18.025,0.85,1.108333,1
106319,-0.1035156,1.185059,0.2924805,36.13281,-51.87988,-22.03369,76.84937,8.272705,86.45142,14.325,2.508333,1.05,1
106649,-0.02294922,0.8105469,0.028808590000000002,-41.68701,25.81787,-19.104,74.47632,6.361084,98.03101,17.70833,4.875,-0.1416667,1
106919,0.05322266,0.8500977,0.4389648,-21.85059,54.26025,29.35791,74.13574,2.49939,106.3751,14.125,4.508333,4.233333,1
107229,-0.03808594,0.8764647999999999,0.04980469,-16.72363,-49.74365,0.3662109,74.65759,4.031982,95.79529,23.46667,-36.9,-14.51667,1
107529,-0.3076172,1.430176,-0.1191406,27.58789,-54.93164,-36.56006,72.83936,0.14282229999999999,87.40723,11.83333,7.475,-1.658333,1
107769,0.001953125,0.855957,0.17480469999999998,-13.42773,62.19482,26.7334,76.24512,5.531616,90.9668,14.24167,2.5,-3.666667,1
108039,0.04785156,1.293945,-0.24414059999999999,46.26465,21.66748,-1.708984,70.81787,7.88269,103.656,23.38333,-36.20833,-9.258333,1
108339,-0.10888669999999999,0.875,0.2460938,21.3623,-53.4668,-23.01025,74.31702,5.284424,110.4456,21.63333,-37.55833,-7.683333,1
108629,-0.02587891,0.9370117,0.1411133,4.150391,-5.249023,5.67627,71.87256000000001,2.746582,97.94861,22.88333,-37.63334,-14.06667,1
108949,0.05712891,0.8852538999999999,0.1889648,31.79932,24.23096,29.60205,77.20642,7.838745,89.599,12.76667,2.866667,-2.783333,1
109330,-0.02197266,1.443848,0.04248047,-5.7983400000000005,42.5415,44.43359,74.61914,8.415527,104.6173,23.78333,-35.85833,-7.075,1
109589,-0.4624023,0.9404296999999999,0.26220699999999997,24.41406,-0.8544921999999999,-14.28223,75.58594,4.872437,114.5215,14.975,2.683333,0.4166667,1
109839,-0.1201172,0.7592772999999999,-0.002929688,-8.972168,-62.98828,21.30127,73.14697,3.630981,99.79431,22.45,-38.3,-12.79167,1
110079,0.1484375,1.008301,0.5698242,-2.441406,15.44189,-64.69727,74.9762,6.558838,92.62024,20.925,3.3,-0.7583333,1
110349,-0.07128906,0.8725586,0.07617188,0.4882813,40.34424,2.01416,76.76147,6.223755,98.3551,14.63333,0.2666667,-5.4,1
110649,-0.5639647999999999,1.239746,0.6201171999999999,-2.258301,21.97266,67.99316,75.1355,6.157837,110.3851,20.04167,-38.65833,-4.458333,1
110899,-0.1323242,0.8076171999999999,0.2304688,18.55469,-56.64063,-20.62988,76.03638,4.5593259999999995,112.2913,14.875,1.683333,1.933333,1
111149,0.05224609,0.9804687999999999,0.1464844,3.234863,-20.50781,4.577637,73.79517,2.06543,93.6145,23.75833,5.775,1.208333,1
111449,0.20947269999999998,0.7915038999999999,0.25537109999999996,-5.7983400000000005,19.22607,27.9541,78.06885,7.454224,85.84717,27.78333,-33.31667,-14.51667,1
112859,-0.09960938,0.8588867,0.12207029999999999,-5.981445,48.33984,2.563477,77.20642,6.344604,87.07764,27.39167,-33.1,-14.33333,1
113169,-0.1318359,1.10498,0.3198242,18.98193,26.67236,52.49023,74.8938,6.937866,96.78406,24.04167,-35.46667,-8.8,1
113429,-0.3007813,0.9663086,0.15820309999999999,11.04736,-7.995605,-15.56396,78.65662,4.526367,107.9077,14.8,1.641667,-0.1416667,1
113669,0.08740234,1.321289,-0.01025391,15.86914,-44.06738,17.76123,77.25586,2.25769,92.96631000000001,23.01667,-36.71667,-12.64167,1
113979,-0.008789063,0.9160155999999999,0.2241211,-0.7324219,16.29639,20.08057,78.72253,9.84375,84.74854,14.53333,2.708333,-0.925,1
114279,0.09179688,0.7441405999999999,0.1396484,-10.55908,52.79541,-0.9155272999999999,74.83337,8.76709,93.30688,27.09167,-32.76667,-11.75833,1
114599,-0.359375,0.9428711,0.2895508,-13.97705,21.42334,-0.12207029999999999,74.60266,4.048462,104.0076,14.44167,3.725,2.008333,1
114919,-0.04980469,0.8940429999999999,0.01855469,-4.455566,-47.18018,5.67627,75.30029,5.465698,91.87866,15.95833,2.65,0.0,1
115229,-0.5839844,0.8242187999999999,0.4560547,-15.44189,15.86914,-54.26025,76.10779,7.684937,80.90332,17.50833,2.775,-2.175,1
115459,0.03076172,0.8945312999999999,0.1694336,-11.35254,58.41064,28.74756,77.05261,5.564575,84.10034,16.35833,0.5083333,-2.733333,1
115649,0.08154297,0.7524413999999999,0.1132813,-8.666992,31.79932,-5.615234,73.31177,6.569824,92.6532,26.16667,-2.6,2.333333,1
115859,-0.3989258,1.02002,0.4760742,-23.07129,-11.77979,88.13477,74.02588,1.928101,97.90466,19.14167,4.708333,-0.275,1
116069,-0.041015630000000004,0.8505859,0.21435549999999998,15.56396,-40.95459,-24.90234,75.5365,2.999268,99.83276,16.0,0.49166669999999996,0.9166667,1
116289,-0.0859375,1.149414,-0.08154297,10.80322,10.86426,-6.103516,73.42712,0.5548096,91.82922,22.54167,-36.85833,-14.675,1
116529,0.2763672,1.314941,0.22851559999999999,33.5083,-38.45215,-10.98633,76.9812,8.486938,90.70862,13.625,2.975,0.8416665999999999,1
116779,-0.01464844,0.9619141,-0.07861328000000001,-43.88428,34.91211,-15.68604,76.05835,6.860962,99.4043,17.20833,2.133333,-0.8083332999999999,1
117089,-0.2573242,1.072266,0.3740234,-23.80371,50.53711,18.24951,75.19043,3.092651,112.4286,18.0,-39.15833,-3.925,1
117389,-0.1489258,0.9428711,0.05615234,-20.50781,-52.85645,0.9155272999999999,74.45435,5.361328,101.1841,22.39167,-37.13334,-11.45,1
117659,-0.19726559999999999,1.526855,-0.008300781,28.9917,-15.56396,-41.93115,74.79492,3.9935300000000002,94.61975,12.68333,8.225,-1.666667,1
117899,0.02832031,0.8789062999999999,0.1962891,-9.887695,38.08594,23.80371,77.03613,7.948608,95.89417,25.375,-33.94167,-9.35,1
118199,0.12744139999999998,1.42627,-0.1855469,31.25,34.17969,8.361816,75.95947,9.536133,104.9469,16.65,10.925,-4.2,1
118509,-0.07226563,0.8588867,0.1079102,8.239746,-81.29883,-28.38135,76.55823,6.036987,106.0291,22.51667,-36.19167,-6.991667,1
118809,-0.41259769999999996,1.093262,-0.21728519999999998,24.04785,-35.33936,-6.530762,74.0094,2.026978,92.34009,23.425,-36.70833,-14.48333,1
119089,0.1762695,1.432617,0.12402339999999999,13.5498,-12.51221,-7.202148,76.97021,9.107666,86.79199,13.25,2.95,-0.24166669999999998,1
119359,-0.01171875,0.8789062999999999,-0.009765625,-31.12793,22.03369,-10.62012,75.16296,7.190552,100.2502,17.06667,3.016667,-0.1833333,1
119679,0.1552734,0.921875,0.43408199999999997,-22.70508,58.65479,26.97754,74.64661,3.658447,109.9457,13.78333,4.158333,3.783333,1
119879,-0.08398438,0.8618163999999999,0.1401367,10.86426,-54.38232,-18.12744,76.14075,5.971069,107.7484,14.85833,1.025,-1.141667,1
120099,-0.2338867,0.8168945,0.1411133,11.77979,-47.42432,9.521484,73.45459,4.191284,97.95959,22.36667,-4.95,3.2,1
120329,0.12451169999999999,1.248535,0.10839839999999999,4.272461,7.507324,12.69531,77.53052,9.953613,86.95129,28.675,-32.05833,-12.475,1
120609,-0.09570313,0.9711913999999999,-0.01660156,-14.22119,43.88428,7.202148,77.52502,7.190552,93.88916,11.24167,0.30000000000000004,-3.766667,1
120829,-0.215332,1.06543,0.5219727,-3.2958979999999998,-5.737305,59.50928,75.65735,4.839478,103.3759,18.13333,4.216667,0.3833333,1
121139,-0.03320313,0.9438477,0.01464844,-1.159668,-57.00684,-10.13184,77.60193,4.971313,98.60229,24.875,-35.96667,-11.70833,1
121439,0.2919922,1.178711,0.6640625,0.6713867,6.591797,-65.06348,75.34973,4.801025,88.61572,22.825,6.125,4.225,1
121739,-0.1025391,0.6679687999999999,0.1635742,3.234863,23.31543,40.58838,76.93176,8.250732,87.08862,13.25,2.066667,-0.625,1
121979,-0.2397461,1.083008,0.2070313,-4.943848,21.3623,5.92041,73.29529,9.656982,99.59656,23.325,9.933333,0.225,1
122229,-0.20605469999999998,0.8515625,0.2202148,20.50781,-33.44727,-15.07568,75.58594,4.301147,106.5564,23.33333,-36.99166,-6.725,1
122499,-0.0859375,0.8012695,0.05126953,-9.155273,-52.49023,1.159668,73.70178,4.570313,95.43823,17.08333,4.025,0.9666665999999999,1
122739,-0.6791992,0.7441405999999999,0.3681641,22.33887,-12.02393,-51.57471,75.65186,8.272705,83.573,30.45,-31.80833,-19.2,1
123039,-0.1538086,0.8383788999999999,0.05029297,-24.10889,48.21777,-0.6713867,76.94824,5.223999,92.57629,28.2,-34.44167,-12.21667,1
123329,0.2910156,0.8105469,0.4848633,13.67188,22.64404,58.22754,75.25635,3.059692,102.6617,23.41667,-39.33333,-6.658333,1
123629,-0.1118164,0.8789062999999999,0.1611328,8.117676,-54.01611,-27.771,76.82739,5.009766,103.3649,15.275,0.47500000000000003,-0.4666667,1
123949,0.2480469,1.151855,0.7631836,-6.347656,27.28271,-58.10547,73.70728,6.064453,86.28662,31.78333,-31.89167,-17.94167,1
124209,-0.04833984,0.7568359,0.2304688,10.55908,39.61182,28.25928,74.71802,7.300415,89.02771,14.94167,1.358333,-0.8416665999999999,1
124419,-0.009765625,0.8125,0.02685547,-35.82764,41.93115,-19.104,73.38318,9.283447,97.45422,14.991670000000001,-2.15,7.341667,1
124629,-0.05712891,1.090332,0.4487305,-6.591797,34.48486,12.87842,73.03162,4.954834,109.2755,23.38333,-38.73333,-5.475,1
124869,-0.06787109,0.8784179999999999,0.1464844,5.493164,-77.45361,-20.01953,74.09729,5.9545900000000005,100.6183,15.375,0.6166667,-0.225,1
125149,0.004394531,0.8642578,0.1650391,-11.65771,-44.37256,2.624512,71.51001,2.565308,89.35181,17.48333,-3.291667,3.841667,1
125359,0.21386719999999998,1.380859,0.1196289,7.507324,20.44678,37.04834,76.40991,8.305664,78.32703,15.65833,2.566667,-1.5833329999999999,1
125639,-0.001953125,0.7695312999999999,0.011230470000000001,-7.080078,23.07129,-16.47949,75.28931,7.492676,89.22546,30.70833,-31.46667,-13.4,1
125909,-0.47363279999999996,1.084961,0.425293,-10.13184,41.80908,41.93115,75.47607,7.509155,95.4657,26.15833,-34.875,-8.808333,1
126199,-0.030273440000000002,0.9106445,0.01953125,13.18359,-59.57031,-11.65771,77.66235,5.394287,91.24146,29.21667,-32.23333,-13.53333,1
126469,-0.40332029999999996,1.114258,-0.24462889999999998,23.01025,-59.99756,-7.019043,72.65808,1.252441,78.28857,19.18333,7.2,-0.55,1
126789,-0.07470703000000001,0.8476562999999999,0.18994139999999998,-8.911133,62.68311,29.29688,77.52502,5.218506,78.07983,14.866670000000001,0.9500000000000001,-2.158333,1
127059,-0.015625,0.9521484,-0.203125,19.9585,2.685547,-11.65771,73.15247,8.607788,91.56555,31.125,-29.925,-11.91667,1
127359,-0.2963867,1.061035,0.4018555,-6.408691,85.14404,12.81738,74.328,3.224487,101.9641,15.9,3.25,3.0,1
127609,-0.12402339999999999,0.8027344,-0.08740234,-5.187988,-67.87109,0.3662109,76.53625,4.158325,94.56482,16.775,1.95,-1.5833329999999999,1
127889,-0.4492188,1.223633,0.3217773,35.33936,-60.97412,-43.94531,77.91504,9.882202,79.89258,15.375,2.058333,-1.5833329999999999,1
128219,-0.1552734,0.890625,0.09716797,-43.45703,59.44824,-2.075195,75.41565,8.206787,96.85547,16.80833,4.95,0.8833333,1
128529,0.34130859999999996,0.9267578,0.487793,3.601074,19.71436,51.81885,76.06934,4.037476,102.7606,14.38333,4.675,2.941667,1
129869,-0.2460938,0.8564453,0.1914063,14.5874,-5.859375,-22.88818,76.24512,3.065186,103.1396,14.125,2.625,0.1,1
130169,-0.09570313,0.8881836,-0.02929688,2.075195,-46.20361,1.525879,75.89905,5.229492,96.26221,15.3,2.983333,-1.141667,1
130379,-0.3500977,0.8891602,0.5126953,19.28711,7.324219,-61.2793,76.65161,7.075195,82.93579,34.14167,-30.30833,-13.925,1
130619,0.01464844,0.871582,0.09667969,-6.04248,53.10059,13.42773,79.50256,6.608276,84.74854,15.40833,0.3916667,-3.291667,1
130859,0.1806641,1.416016,-0.14306639999999998,20.32471,34.36279,13.18359,76.07483,7.904663,96.86096,29.875,-32.875,-3.191667,1
131109,-0.43554689999999996,1.14502,0.22900389999999998,9.58252,21.60645,-3.845215,77.42065,2.598267,106.9739,17.975,0.8416665999999999,3.141667,1
131389,-0.024902340000000002,0.9345703,0.01416016,-17.21191,-53.83301,-13.42773,80.25513,5.828247,97.42676,15.2,-0.05,-5.041667,1
131639,0.159668,1.312012,0.3393555,5.493164,-9.094238,-62.5,76.0199,5.806274,85.88562,15.64167,5.983333,1.45,1
131869,-0.060546880000000004,0.8173828,0.1655273,7.995605,23.98682,31.37207,77.60193,8.453979,81.7218,14.24167,2.608333,-0.8333332999999999,1
132089,-0.02929688,0.7910155999999999,0.1918945,-22.09473,32.65381,-1.708984,73.79517,8.041992,89.2804,32.39167,-32.04167,-9.625,1
132359,-0.15136719999999998,1.005371,0.5175780999999999,-16.47949,22.88818,61.34033,73.91052,5.421753,95.87219,16.89167,5.15,-1.325,1
132599,-0.125,0.9023437999999999,0.18945309999999999,5.432129,-19.65332,-5.371094,74.88281,6.289673,96.57532,28.86667,-35.10833,-6.141667,1
132929,-0.05810547,1.23291,-0.020996090000000002,3.4790039999999998,-69.88525,-24.4751,74.20715,2.307129,85.85266,16.20833,7.225,1.008333,1
133239,-0.06201172,0.9296875,0.2470703,15.38086,-3.2958979999999998,10.31494,77.36572,7.25647,76.24512,15.76667,2.291667,0.5416667,1
133519,-0.04833984,0.9072266,0.1523438,-34.24072,28.86963,-1.403809,73.64136,7.816772,81.2384,19.93333,-2.816667,2.65,1
133849,-0.2036133,1.035645,0.39648439999999996,-20.62988,39.0625,39.24561,74.65759,3.6859129999999998,92.18079,15.79167,3.741667,3.408333,1
134159,-0.10839839999999999,0.9023437999999999,0.07275391,0.7324219,-33.20313,-2.868652,76.68457,4.9823,87.11609,14.80833,1.233333,-0.025,1
134399,-0.33251949999999997,1.062012,-0.13134769999999998,17.76123,-50.72021,-2.01416,76.32202,1.862183,81.11206,20.60833,7.533333,0.2,1
134619,-0.09716797,0.8222655999999999,0.1923828,1.6479489999999999,35.09521,24.96338,80.02441,7.816772,76.87134,33.25834,-32.89167,-13.225,1
134849,-0.06201172,0.9379883,0.06494141,-16.78467,36.19385,4.272461,79.53552,6.569824,84.76501,16.01667,0.1416667,-3.625,1
135089,-0.2734375,1.132813,0.1098633,-5.859375,75.56152,32.71484,77.61292,8.009033,100.5688,27.29167,-36.65,-0.6083333,1
135339,-0.1679688,1.004883,0.18945309999999999,22.15576,-37.53662,-23.62061,77.75024,4.641724,107.3474,14.78333,2.791667,-0.7916667,1
135619,-0.06640625,0.9116211,0.10693359999999999,-16.41846,-35.82764,-1.708984,76.91528,6.185303,98.24524,13.85833,1.325,-0.1833333,1
135829,-0.06640625,0.9116211,0.10693359999999999,-16.41846,-35.82764,-1.708984,76.91528,6.185303,98.24524,20.375,7.325,2.366667,1
136049,-0.022460940000000002,0.9306641,0.2070313,25.26855,80.74951,25.93994,79.28833,4.235229,105.7599,17.38333,2.458333,-0.7083332999999999,1
136319,-0.1293945,0.9272461,0.1157227,-8.789063,73.73047,2.929688,78.75,2.373047,137.1643,1.758333,-45.49166,13.30833,1
136629,-0.6904296999999999,1.291992,0.3681641,-35.7666,141.1743,14.70947,78.57422,5.789795,170.376,-17.94167,-46.825,11.05833,1
136899,-0.2802734,0.8413086,0.2504883,-11.90186,115.6616,24.6582,77.85461,6.020508,-164.4434,13.64167,3.0,-1.116667,1
137149,-0.2885742,0.9169921999999999,0.1333008,-20.38574,45.34912,7.507324,77.12952,9.058228,-138.1586,15.68333,2.533333,-1.908333,1
137479,-0.2836914,1.143066,0.08007813,3.78418,-35.70557,3.2958979999999998,76.94275,6.218262,-131.9293,16.01667,2.475,1.608333,1
137759,-0.1098633,1.069336,0.2270508,-14.77051,67.68799,29.54102,80.96375,9.28894,-124.6893,15.275,2.758333,-0.5083333,1
138209,0.05859375,1.066895,-0.1992188,-16.23535,89.35547,36.07178,84.18823,6.443481,-94.32312,19.13333,6.25,1.283333,1
138519,-0.1152344,0.8920897999999999,0.171875,-18.00537,14.64844,-12.63428,79.98596,5.081177,-79.05212,15.31667,2.05,-1.3,1
138729,-0.09912109000000001,0.9135742,0.09765625,12.57324,15.19775,18.31055,76.93726,5.718384,-73.18542,-34.75,-32.81667,-48.49166,1
138969,-0.4648438,0.8896484,0.31787109999999996,12.26807,-5.7983400000000005,-4.516602,80.56824,7.811279,-72.55371,18.075,3.2,1.425,1
139239,-0.026367190000000002,0.9023437999999999,0.1230469,1.281738,69.0918,31.86035,83.66638,5.982056,-65.23682,17.65,0.1083333,-0.35833329999999997,1
139449,0.03857422,1.07373,-0.07763672,6.530762,33.02002,4.211426,82.18323,6.6687009999999995,-49.69666,-23.21667,-33.24166,-54.86666,1
139689,-0.49023439999999996,0.7763671999999999,0.2758789,-23.31543,-30.39551,4.638672,80.7605,3.856201,-50.51514,16.65833,1.85,1.216667,1
139939,-0.07763672,0.9130859,0.1171875,-6.591797,-67.26074,-12.81738,80.81543,6.855469,-65.54993,15.89167,0.8416665999999999,-1.05,1
140159,-0.13525389999999998,1.069336,-0.08251953000000001,13.42773,-24.53613,-1.037598,76.69006,4.537354,-79.51904,21.15,7.875,0.9083334,1
140459,-0.09130859,0.7119141,0.2001953,1.953125,21.1792,26.55029,78.12927,7.657471,-85.12207,-39.81667,-35.89167,-40.26667,1
140769,0.09960938,0.8344727,0.10644529999999999,-9.94873,57.80029,8.178711,75.44861,7.932129,-76.30554,24.05,-0.1833333,1.016667,1
141069,-0.32519529999999996,0.8261719,0.3852539,-5.432129,-21.11816,-9.887695,76.78345,2.125854,-62.31995,-36.68333,-30.6,-50.425,1
141399,-0.1030273,0.7001953,0.0390625,-5.615234,-27.9541,7.995605,76.18469,3.543091,-74.95422,19.54167,-2.625,2.875,1
141729,0.1767578,1.154297,0.1401367,13.61084,-36.01074,-13.24463,78.58521,9.904175,-84.99023,13.6,2.991667,-0.525,1
141969,0.06591797,0.9448242,0.04980469,-19.40918,-1.953125,-5.187988,77.23389,6.531372,-85.74829,-41.44167,-35.49166,-38.65833,1
142249,-0.07373047,1.37793,0.06298828000000001,1.220703,16.60156,28.56445,75.71777,6.394043,-80.06836,15.475,6.225,0.49166669999999996,1
142529,-0.056640630000000004,0.9252929999999999,0.1923828,8.850098,-40.71045,-24.35303,75.96497,2.532349,-82.87537,15.866670000000001,1.45,1.208333,1
142799,0.0,1.074707,0.04394531,27.16064,-21.3623,-11.96289,76.54175,2.351074,-92.05444,23.425,3.133333,0.8333332999999999,1
143169,-0.008300781,0.9106445,0.1577148,12.39014,4.577637,17.82227,78.39844,6.6687009999999995,-95.47119,-43.80833,-37.625,-29.2,1
143429,0.06689453000000001,0.9858397999999999,-0.015625,-34.05762,35.88867,-2.563477,75.91553,5.784302,-93.66394,17.56667,1.666667,-0.48333329999999997,1
143679,0.1015625,0.8476562999999999,0.43505859999999996,-14.89258,24.04785,30.88379,74.37744,2.938843,-79.20593,-43.13334,-31.75833,-42.48333,1
143919,-0.10839839999999999,0.8916016,0.22167969999999998,6.896973,-29.29688,-22.33887,73.30078,3.817749,-79.81018,16.05833,2.841667,-0.2833333,1
144169,-0.08886719,0.9057617,0.08740234,-9.033203,-16.35742,0.3051758,72.09778,4.75708,-84.50684,15.03333,1.883333,3.508333,1
144369,-0.3198242,0.6650391,0.3164063,3.234863,-3.356934,-0.6713867,76.21216,7.564087,-87.5885,-42.13334,-36.65833,-34.175,1
144619,-0.0390625,0.9443359,0.1396484,-1.281738,67.74902,29.72412,78.68408,6.196289,-78.46436,16.125,1.9000000000000001,-0.8833333,1
144899,0.1518555,0.9443359,-0.01611328,-1.464844,43.76221,-1.7700200000000001,75.67383,8.657227,-62.28699,-32.53333,-32.66667,-50.13334,1
145169,-0.2084961,0.8950195,0.17382809999999999,0.4882813,-46.69189,-20.01953,76.27808,6.487427,-59.07898,-34.66667,-31.85833,-49.63334,1
145469,-0.07128906,0.8852538999999999,0.05957031,-3.723145,-42.5415,-9.216309,75.19592,7.487183,-68.99963,16.16667,1.358333,0.04166667,1
146819,-0.1103516,0.9462891,0.06933594,-9.58252,-77.81982,-7.080078,73.87207,6.948853,-61.16638,19.35,-1.083333,4.25,1
147119,0.005371094000000001,0.8813477,0.2817383,20.32471,-67.13867,-15.44189,76.02539,9.816284,-74.5752,-37.89167,-35.96667,-38.93333,1
147399,0.121582,0.965332,-0.1098633,-5.7983400000000005,16.41846,7.263184,78.41492,4.136353,-77.66235,-41.625,-34.30833,-36.55833,1
147689,-0.19824219999999998,1.652344,0.05029297,-17.33398,31.61621,20.44678,78.87634,4.389038,-70.96619,20.16667,5.25,-0.6083333,1
147949,-0.1030273,0.7890625,0.15869139999999998,10.49805,-11.23047,-23.92578,75.98145,3.911133,-67.6593,15.625,0.5166666999999999,0.05,1
148219,0.009765625,1.139648,-0.03662109,26.61133,-33.26416,-12.45117,74.54773,2.763062,-76.17371,20.20833,9.875,-0.2,1
148549,-0.05224609,1.041992,0.2563477,23.25439,-51.33057,-23.19336,75.30579,9.294434,-81.94153,13.85,2.55,0.0,1
148889,0.16259769999999998,0.8256836,0.13476559999999999,2.01416,64.27002,11.41357,73.17993,7.492676,-76.69006,30.65,0.775,1.966667,1
149119,0.16259769999999998,0.8256836,0.13476559999999999,2.01416,64.27002,11.41357,73.17993,7.492676,-76.69006,15.88333,4.791667,0.7666666999999999,1
149309,0.0078125,0.8886719,0.09521484000000001,1.89209,-41.19873,-3.173828,75.83313,3.971558,-81.10107,-42.65,-34.975,-33.54167,1
149549,-0.05615234,0.9350586,-0.03222656,-8.850098,-21.1792,1.8310549999999999,75.31128,2.999268,-84.11682,18.43333,-1.758333,1.766667,1
149759,-0.03955078,1.064453,0.3359375,11.2915,-2.13623,-18.00537,76.00342,8.135376,-90.43396,13.45833,2.883333,-1.3333329999999999,1
149979,-0.08300781,0.8569336,0.1074219,-8.178711,48.15674,13.3667,77.63489,4.685669,-81.10107,15.625,1.541667,-3.441667,1
150199,0.022460940000000002,0.9477538999999999,0.0546875,-3.90625,45.10498,4.882813,73.4436,6.795044,-74.91028,21.95833,-1.8666669999999999,-1.675,1
150409,-0.1333008,0.9858397999999999,0.4399414,-10.37598,-10.55908,34.11865,73.59192,3.565063,-68.35693,15.90833,6.8,-1.275,1
150619,-0.017089840000000002,0.9257812999999999,0.1020508,10.74219,-40.46631,-17.8833,74.94324,4.328613,-75.52551,-40.98333,-35.825,-37.25834,1
150899,-0.06640625,1.0625,0.1040039,21.24023,-20.08057,-4.333496,74.45435,3.823242,-81.34277,22.80833,5.058333,-0.2333333,1
151139,-0.03125,0.8916016,0.42724609999999996,-0.7324219,-65.36865,-22.64404,75.18494,8.33313,-86.72607,16.35,2.875,1.2,1
151379,-0.06542969,0.890625,0.06738281,-5.859375,1.098633,-3.4790039999999998,75.68481,5.614014,-86.36902,15.45,1.125,-4.283333,1
151620,-0.06542969,1.1875,0.4067383,-18.00537,-12.69531,46.32568,73.24585,2.839966,-76.82739,-41.81667,-34.08333,-37.69167,1
151929,-0.07324219,0.8608397999999999,0.20605469999999998,12.08496,-25.08545,-28.9917,72.63611,3.284912,-78.12378,15.89167,1.85,0.925,1
152179,-0.02001953,0.9472655999999999,0.1435547,24.84131,-21.91162,-4.638672,72.66907,2.878418,-84.79797,21.925,6.575,-0.36666669999999996,1
152449,-0.09521484000000001,0.8701171999999999,0.1733398,0.6103516,23.74268,39.18457,76.11328,7.772827,-91.08215,14.325,2.041667,-0.3333333,1
152819,-0.128418,1.591797,-0.09716797,-5.859375,47.72949,29.23584,73.61389,6.437988,-81.24939,-38.89167,-36.70833,-34.875,1
153049,-0.2832031,0.8720703,0.35693359999999996,-28.25928,21.48438,6.408691,72.52075,1.889648,-74.19617,14.4,3.475,0.9500000000000001,1
153339,-0.02929688,0.8935546999999999,0.08007813,6.103516,-5.737305,-6.103516,72.49878,4.575806,-76.66809,15.01667,0.5750000000000001,-0.225,1
153539,0.011230470000000001,1.524414,0.2641602,12.75635,-21.1792,-55.54199,74.2511,5.289917,-80.85938,-37.90833,-37.44167,-33.8,1
153879,-0.09228516,0.8476562999999999,0.1210938,2.075195,13.42773,18.12744,75.91553,6.377563,-82.58972,-38.58333,-36.93333,-32.85833,1
154169,-0.215332,1.227051,0.060546880000000004,-1.281738,40.16113,23.80371,72.94922,7.080688,-75.55298,-37.34167,-34.99166,-38.60833,1
154469,0.02050781,0.8364258,0.20947269999999998,14.46533,-26.7334,-31.06689,72.43835,2.340088,-72.88879,15.35,1.941667,0.5333333,1
154769,0.01074219,0.9384766,0.1176758,22.09473,-24.90234,-0.4882813,71.63635,2.796021,-81.84814,-40.35833,-35.35,-32.875,1
155049,0.01074219,0.9677734,0.1879883,5.493164,30.70068,30.51758,75.16296,9.085693,-84.78699,-36.51667,-38.25,-31.94167,1
155339,-0.04589844,0.8959961,0.06689453000000001,-6.896973,4.333496,-0.4882813,75.25085,6.240234,-79.40918,16.55,0.2583333,-2.558333,1
155589,-0.45800779999999996,1.171387,0.3769531,-5.432129,-8.361816,46.69189,73.85559,4.136353,-69.54346,-38.96667,-32.43333,-40.15833,1
155859,-0.015625,0.8833008,0.1079102,4.02832,-33.14209,-13.06152,74.31152,3.092651,-76.42639,-39.61666,-34.075,-35.79167,1
156229,-0.2670898,1.3935549999999999,-0.05957031,9.033203,-25.75684,-23.80371,73.32275,3.268433,-83.6499,15.725,8.566667,-0.6166667,1
156489,-0.05517578,0.8193359,0.1831055,6.103516,28.80859,32.65381,76.77795,5.009766,-87.35779,14.8,2.316667,-0.8250000000000001,1
156799,0.002441406,0.9565429999999999,-0.04736328,-21.72852,20.38574,-13.61084,74.84436,4.647217,-82.19421,14.70833,5.716667,-4.641667,1
157049,-0.2680664,0.9438477,0.3525391,1.525879,-1.8310549999999999,-7.629395,71.71326,2.021484,-68.0658,-38.025,-32.59167,-40.79167,1
157349,-0.04785156,0.9501953,0.10107419999999999,2.929688,-37.53662,-13.18359,74.29504,5.443726,-75.8551,15.75,0.7083332999999999,-2.575,1
157659,-0.31787109999999996,1.181152,-0.2182617,12.39014,-74.89014,-22.52197,71.38367,4.306641,-84.86938,16.08333,7.625,-1.758333,1
157869,-0.06640625,0.6987304999999999,0.2636719,6.103516,32.89795,37.35352,72.83936,8.146362,-85.19348,-36.18333,-37.625,-32.91667,1
158139,0.04394531,0.9677734,-0.06005859,-21.54541,26.12305,-11.96289,73.16895,7.564087,-78.79395,19.38333,0.75,0.48333329999999997,1
158379,-0.3925781,1.279297,0.42041019999999996,3.723145,-10.0708,49.56055,73.526,5.773315,-70.77393000000001,15.425,7.008333,-3.333333,1
158589,-0.1132813,0.8173828,0.17871089999999998,9.277344,-48.03467,-16.17432,72.77344,6.009521,-74.10278,-36.65,-35.28333,-37.79167,1
158899,-0.2304688,1.249512,-0.2519531,36.9873,-87.34131000000001,-22.88818,69.72473,2.39502,-87.73682,17.45,6.891667,-1.675,1
159209,0.03125,0.8198242,0.2661133,-1.708984,39.42871,33.93555,74.09729,5.542603,-94.78455,14.7,3.191667,-0.8,1
159569,-0.01318359,0.8344727,0.14306639999999998,7.141113,67.68799,2.380371,71.38916,6.141357,-79.28284,22.65833,0.8583333999999999,-0.6000000000000001,1
159869,-0.140625,0.8759766,0.19042969999999998,10.25391,-39.12354,-25.63477,74.63013,6.086426,-67.16492,-34.96667,-34.825,-40.98333,1
160149,-0.001464844,0.9765625,0.02197266,-3.173828,-43.45703,-1.708984,73.40515,6.295166,-76.81091,17.025,1.5833329999999999,0.675,1
160419,-0.49853519999999996,0.8330078,0.4995117,1.525879,-24.4751,-34.17969,74.44885,8.388062,-88.64319,-35.65833,-39.86666,-28.89167,1
160679,-0.1708984,0.8989258,0.06640625,-4.02832,23.4375,7.507324,75.78369,5.6524659999999995,-83.21045,-37.64167,-37.45833,-31.85,1
160989,-0.1577148,1.123047,0.048828130000000004,5.065918,39.97803,19.47021,73.97644,6.410522,-76.95923,23.39167,4.516667,0.0,1
161239,-0.05224609,0.9931641,0.1723633,20.56885,-22.46094,-31.00586,74.06982,1.625977,-67.40662,14.01667,2.633333,0.675,1
161519,-0.1489258,0.9145508,0.1293945,7.446289,-41.44287,-3.90625,73.02612,3.66394,-75.08606,23.53333,-0.5416667,1.891667,1
161839,-0.2929688,0.8701171999999999,0.425293,6.04248,-7.385254,-40.03906,74.90479,8.497925,-81.43616,14.20833,2.691667,0.6833332999999999,1
162149,0.005371094000000001,0.9785155999999999,-0.009277344,-26.18408,19.65332,-8.789063,74.31152,7.575073,-77.03613,19.3,0.625,0.85,1
162389,-0.3271484,1.303711,0.31054689999999996,4.150391,-13.85498,52.55127,74.05334,4.202271,-69.83459,13.09167,6.891667,-3.766667,1
162609,-0.009277344,0.9790038999999999,0.18261719999999998,23.37646,-36.49902,-32.95898,73.23486,1.686401,-69.69177,14.475,2.525,1.05,1
163929,-0.04345703,0.9052734,0.14257809999999999,15.74707,-27.9541,-16.29639,73.24036,4.048462,-69.9115,-37.35833,-34.53333,-39.59167,1
164169,-0.17480469999999998,0.9033203,0.2109375,-27.9541,-37.29248,-0.42724609999999996,70.25757,3.757324,-74.45984,22.55,-3.291667,4.066667,1
164399,0.07470703000000001,1.114746,0.4238281,-9.765625,11.35254,-52.4292,71.33972,5.015259,-84.50134,19.725,5.308333,1.266667,1
164619,-0.08642578000000001,0.7695312999999999,0.25488279999999996,7.751465,34.85107,35.88867,73.6084,6.921387,-81.91956,14.63333,1.416667,1.466667,1
164839,-0.02929688,0.8945312999999999,-0.04638672,-12.75635,12.69531,-5.187988,75.09705,4.702148,-75.84412,17.64167,3.65,0.125,1
165049,0.15625,0.5957030999999999,0.4467773,-16.8457,30.88379,23.98682,73.07556,1.274414,-64.99512,15.06667,5.375,3.4,1
165329,-0.03076172,0.9951171999999999,0.09130859,-11.41357,-46.99707,-13.5498,73.71277,3.823242,-72.64709,-38.63334,-35.15,-37.46667,1
165629,0.2270508,1.5541989999999999,0.2729492,21.48438,6.408691,-55.11475,71.88354,3.878174,-83.6499,-38.025,-37.16667,-33.06667,1
165899,0.06884766,0.9936522999999999,0.2529297,15.44189,8.056641,24.78027,73.3667,9.008789,-87.39075,13.59167,3.5,0.525,1
166139,-0.1699219,0.9291992,0.1303711,-7.751465,42.23633,11.47461,74.65759,5.734863,-77.47009,16.66667,1.133333,-4.866667,1
166379,-0.3115234,1.337891,0.39648439999999996,0.12207029999999999,9.521484,42.96875,72.92175,5.202026,-66.11023,11.866670000000001,8.541667,-3.275,1
166659,-0.1132813,0.902832,0.15039059999999999,13.12256,-33.93555,-21.72852,73.83911,4.564819,-70.35645,-37.925,-35.21667,-38.16667,1
166969,-0.1875,1.437988,-0.01416016,5.67627,-23.19336,-33.14209,74.66309,4.158325,-80.74951,14.95833,7.533333,-0.2333333,1
167269,-0.03662109,0.8120117,0.1933594,21.3623,39.12354,32.40967,77.12952,7.218018,-73.87207,15.61667,1.066667,-0.3916667,1
167609,-0.05761719,1.04834,0.1640625,-13.42773,34.11865,0.0,73.83362,8.052979,-64.47876,24.00833,0.75,0.8250000000000001,1
167809,0.03125,0.8505859,0.39501949999999997,0.12207029999999999,-19.83643,19.47021,73.24036,3.669434,-62.01233,14.84167,6.408333,1.0,1
168029,-0.1137695,0.7836913999999999,0.1757813,11.77979,-28.68652,-32.89795,73.48206,5.471191,-67.46155,15.56667,1.275,0.4333333,1
168269,-0.1870117,1.2885739999999999,-0.1420898,17.39502,-28.07617,-4.943848,72.49878,5.218506,-77.52502,-36.39167,-36.98333,-35.675,1
168519,-0.02392578,1.0854489999999999,0.30126949999999997,0.3662109,-22.88818,-19.16504,72.49878,9.920654,-83.2489,12.60833,3.175,1.35,1
168789,-0.09375000000000001,1.018555,-0.03320313,-25.81787,13.06152,-1.159668,71.81763,7.327881,-73.50403,16.33333,4.175,-0.075,1
169089,0.2304688,0.7705078,0.41259769999999996,-19.04297,23.07129,11.77979,70.54321,2.092896,-66.95068,11.7,4.458333,3.466667,1
169339,0.002441406,0.9633788999999999,0.1171875,14.4043,-37.17041,-7.080078,71.55396,4.213257,-69.55994,15.85833,0.1416667,-1.383333,1
169559,0.12255859999999999,1.365234,0.4067383,-8.178711,59.14307,-93.20068,72.78442,6.498413,-78.73901,-34.61666,-39.63334,-37.65,1
169819,-0.04980469,0.8632812999999999,0.2607422,2.319336,17.57813,31.37207,73.67981,9.074707,-80.14526,13.80833,3.45,-0.03333333,1
170079,0.04736328,0.7758788999999999,0.2192383,-23.19336,45.8374,-7.507324,70.99365,8.701172,-71.6748,-32.95833,-39.275,-41.85,1
170379,-0.3422852,0.9677734,0.3046875,-11.04736,28.68652,0.5493163999999999,71.9989,4.180298,-65.34668,13.91667,3.866667,2.566667,1
170679,-0.09960938,0.9072266,0.05175781,-7.202148,-47.11914,6.408691,72.41638,5.438232,-74.04785,-37.86666,-38.64167,-37.375,1
170989,-0.6503905999999999,0.6918945,0.4619141,-6.408691,0.42724609999999996,-7.629395,71.71326,8.448486,-80.16174,16.425,4.041667,1.5833329999999999,1
171329,-0.09814453000000001,0.8862304999999999,0.1079102,6.286621,21.60645,6.225586,74.56421,5.037231,-78.20618,16.69167,-0.5750000000000001,-3.558333,1
171599,-0.3212891,1.233398,0.5517578,1.6479489999999999,9.399414,48.33984,73.35022,4.53186,-68.49426,15.71667,7.283333,-3.691667,1
171959,-0.08886719,0.8461913999999999,0.060546880000000004,-0.6713867,-32.53174,2.868652,73.37219,5.174561,-72.30652,-37.59167,-38.85833,-36.44167,1
172329,-0.3896484,0.8315429999999999,0.4550781,-0.8544921999999999,1.464844,-31.18896,74.31702,8.640747,-80.17822,16.04167,3.966667,-0.35000000000000003,1
172569,-0.12744139999999998,0.8867187999999999,0.060546880000000004,0.6713867,31.00586,6.530762,75.88806,6.069946,-72.81738,-36.225,-40.73333,-33.825,1
172809,-0.1181641,1.42334,-0.08300781,18.12744,30.39551,14.28223,73.35571,7.88269,-67.37366,16.75833,8.408334,-0.1333333,1
173079,-0.18652339999999998,0.9301758,0.3935547,-29.72412,34.85107,4.089355,72.43286,2.658691,-62.68799,11.975,3.625,1.266667,1
173279,-0.13916019999999998,0.9228516,-0.004394531,-17.33398,-52.73438,4.760742,72.47131,4.954834,-70.19714,-37.925,-37.075,-36.68333,1
173539,0.44287109999999996,1.443359,0.5395508,-11.23047,-7.019043,-58.41064,72.06482,5.471191,-76.1792,16.71667,7.058333,1.358333,1
173779,-0.09521484000000001,0.8300780999999999,0.2084961,1.098633,29.23584,38.39111,73.72375,7.459717,-77.27234,14.275,3.291667,1.066667,1
173999,0.07324219,0.7866211,0.22949219999999998,-13.79395,69.03076,-3.356934,71.3562,8.063965,-64.57764,29.00833,0.375,-0.5750000000000001,1
174299,-0.2929688,0.8291016,0.284668,13.97705,9.82666,-15.74707,73.37219,4.8614500000000005,-51.48193,-33.28333,-34.33333,-43.89167,1
174609,-0.1259766,0.8769530999999999,0.06396484,-18.67676,-59.69238,4.882813,72.52625,4.779053,-64.89075,20.76667,-5.175,2.975,1
174909,0.006835938000000001,0.9038086,0.21777339999999998,-0.6713867,23.68164,30.0293,74.01489,10.13489,-72.52625,-34.96667,-37.74166,-35.16667,1
175209,0.05029297,0.9135742,0.02148438,-35.09521,23.4375,-14.70947,73.50952,7.888184,-60.59509,-32.98333,-35.43333,-41.5,1
175479,-0.16650389999999998,1.052246,0.4643555,-2.13623,-21.11816,52.4292,72.66907,6.82251,-55.81055,17.74167,7.083333,-3.975,1
175729,-0.02832031,0.8115234,0.18261719999999998,9.094238,-46.81396,-15.625,72.94922,6.256714,-59.31519,15.675,0.975,-1.1,1
176039,-0.03564453,1.467773,0.1523438,16.35742,-27.58789,-40.52734,71.26831,3.136597,-71.48254,12.85833,8.5,-1.3,1
176339,0.00390625,0.8085937999999999,0.2158203,0.0,81.90918,30.15137,74.84985,6.904907,-63.62732,16.30833,1.8,-2.841667,1
176679,-0.06591797,1.287598,0.1713867,9.094238,35.52246,14.52637,72.47681,9.700928,-41.80298,24.875,3.816667,4.45,1
176909,-0.09375000000000001,0.8618163999999999,0.2592773,10.49805,-45.53223,-32.95898,73.76221,5.52063,-43.85193,-30.51667,-30.80833,-50.04167,1
177159,-0.1113281,0.8623046999999999,0.004882813000000001,-3.601074,-57.80029,0.3051758,72.8009,5.905151,-52.5531,14.93333,3.858333,1.341667,1
177399,-0.14257809999999999,1.007324,0.4291992,9.58252,-49.49951,-32.95898,74.96521,8.080444,-64.29199,-35.08333,-35.45,-40.60833,1
177639,-0.028808590000000002,0.7709961,0.1708984,-3.540039,41.07666,17.82227,77.45911,5.553589,-60.3479,16.125,1.116667,-3.516667,1
177919,0.02978516,0.8305663999999999,0.1967773,-8.789063,77.63672,-3.967285,73.09204,8.55835,-51.16333,25.25,1.0,-0.04166667,1
178129,0.02978516,0.8305663999999999,0.1967773,-8.789063,77.63672,-3.967285,73.09204,8.55835,-51.16333,15.0,4.791667,0.9,1
178349,-0.02294922,0.8779296999999999,0.05712891,-3.723145,-41.38184,-5.004883,75.19043,6.679688,-46.70288,14.15833,2.258333,-2.716667,1
178619,0.37207029999999996,1.147461,0.6074219,11.47461,0.12207029999999999,-64.27002,75.58044,7.053223,-58.590090000000004,-31.85,-36.06667,-44.36666,1
178889,-0.009277344,0.7875977,0.1835938,-3.234863,40.34424,37.04834,76.4978,8.223267,-57.60132,13.91667,2.275,-1.658333,1
179139,-0.1000977,1.12793,0.11865229999999999,-7.202148,55.66406,4.943848,74.1687,8.800049,-44.22546,-25.13333,-33.75834,-51.78333,1
179449,-0.1489258,0.809082,0.2041016,12.57324,-7.507324,-18.18848,74.96521,5.196533,-33.91479,13.94167,2.383333,0.9083334,1
180879,-0.06982422,0.8398437999999999,0.08447266,3.173828,-32.65381,-5.310059,75.75073,6.454468,-32.26135,14.10833,1.658333,-0.775,1
181169,-0.4296875,1.266602,-0.1835938,17.8833,-28.13721,-23.62061,75.17944,4.487915,-38.96851,15.91667,8.691667,-0.44166669999999997,1
181419,-0.01074219,0.8876953,0.1777344,7.324219,38.33008,29.47998,78.23914,8.497925,-43.30811,15.04167,1.691667,-1.8,1
181669,-0.4208984,1.162109,-0.04394531,14.34326,26.06201,24.6582,74.63562,8.695679,-31.75049,20.36667,6.316667,-0.2666667,1
181969,-0.046875,0.9023437999999999,0.1577148,23.98682,-42.05322,-39.18457,76.73401,2.356567,-26.82312,15.125,2.05,0.31666669999999997,1
182309,-0.024902340000000002,0.9667969,0.12744139999999998,11.47461,-34.60693,2.380371,74.27307,4.059448,-40.12756,23.2,1.558333,1.591667,1
182549,-0.14697269999999998,1.026855,0.1723633,-7.8125,32.77588,33.99658,76.58569,10.66772,-44.8407,-21.64167,-37.01667,-47.95833,1
182789,-0.14306639999999998,0.9042969,0.06787109,-14.03809,26.30615,7.751465,77.01416,6.234741,-35.3595,14.59167,1.6,-5.691667,1
183029,0.022460940000000002,0.9257812999999999,0.4135742,-15.07568,-6.347656,59.44824,75.72876,3.175049,-25.52124,-18.95833,-34.10833,-52.50834,1
183279,-0.1538086,0.6879883,0.2231445,12.20703,-10.80322,-30.09033,74.35547,3.614502,-21.58264,17.35833,1.041667,0.1333333,1
183549,-0.15820309999999999,0.9057617,0.02685547,-13.67188,-29.60205,-0.8544921999999999,73.07556,4.356079,-26.69128,19.10833,0.225,3.6,1
183769,0.2919922,1.3925779999999999,0.4365234,-1.89209,-27.771,-43.94531,75.33325,4.987793,-31.84387,16.425,7.233333,0.9416667,1
184009,-0.07519531,0.8710937999999999,0.1689453,-15.13672,55.05371,19.71436,76.93726,6.586304,-26.56494,14.85833,1.766667,-2.708333,1
184249,0.1132813,0.824707,0.11865229999999999,2.868652,65.49072,10.00977,73.27332,8.272705,-17.83081,25.19167,-0.15833329999999998,-1.5833329999999999,1
184499,-0.3007813,0.8686522999999999,0.2963867,5.554199,21.72852,-17.39502,74.48181,2.911377,-4.614258,13.79167,3.308333,1.525,1
184769,-0.11083979999999999,0.8627929999999999,0.07763672,-18.49365,-45.8374,10.25391,73.80066,5.278931,-15.65002,-14.46667,-31.93333,-54.3,1
185079,0.2109375,1.260742,0.6464844,22.76611,6.408691,-72.32666,75.75623,7.553101,-23.28003,22.35,4.775,1.791667,1
185309,-0.1137695,0.8222655999999999,0.13916019999999998,-12.51221,63.41553,19.65332,76.64612,5.614014,-12.47498,15.275,0.6083333,-2.3,1
185589,-0.04003906,1.339355,0.08105469,-1.8310549999999999,41.19873,46.75293,75.55847,7.520142,-4.53186,-5.583333,-32.29167,-54.24166,1
185899,-0.21777339999999998,0.8735352,0.1293945,2.380371,-41.50391,-24.90234,76.84387,6.509399,1.834717,14.20833,1.558333,-0.8250000000000001,1
186199,-0.440918,1.259277,-0.2915039,28.32031,-55.48096,-26.7334,75.78918,4.597778,-13.43079,12.7,8.808333,-2.125,1
186599,-0.105957,0.8173828,0.1621094,-23.19336,39.73389,4.211426,76.95374,6.954346,-8.085938,-4.925,-32.56667,-54.2,1
186829,-0.13476559999999999,1.157715,-0.08300781,18.55469,4.943848,8.728026999999999,74.21265,9.041748,-1.642456,21.725,9.158334,0.0,1
187049,-0.08544922,0.9663086,0.38916019999999996,-20.01953,54.6875,12.39014,75.15747,3.460693,3.378296,14.29167,3.091667,2.983333,1
187259,-0.07763672,0.8525391,0.08544922,-10.74219,-35.21729,10.19287,75.93201,5.811768,-3.532104,-4.916667,-32.575,-53.83333,1
187509,-0.2675781,1.373047,-0.12207029999999999,15.74707,-62.43896,-23.37646,74.98169,3.394775,-11.74438,14.075,9.283334,0.4583333,1
187769,0.1044922,1.055664,0.2011719,10.68115,-20.93506,-3.723145,77.146,7.34436,-20.1709,14.89167,3.333333,0.4666667,1
187999,-0.041015630000000004,0.8759766,0.09570313,-12.02393,41.74805,15.99121,77.3877,4.015503,-14.87,16.16667,0.30000000000000004,-4.741667,1
188209,-0.2524414,1.064941,0.48974609999999996,-18.49365,65.30762,23.07129,75.82214,5.625,2.878418,15.85833,6.208333,-1.941667,1
188489,-0.07861328000000001,0.8530272999999999,0.2011719,-2.441406,-45.10498,-16.90674,76.55823,5.39978,7.311401,0.35000000000000003,-32.53333,-52.96667,1
188759,-0.07861328000000001,0.8740234,0.20996089999999998,-2.868652,-36.19385,11.2915,73.97095,3.867188,-1.636963,23.10833,-3.9333329999999997,4.025,1
189009,0.09814453000000001,1.035156,0.2246094,7.446289,28.25928,23.55957,76.64063,9.816284,-11.1676,-3.975,-33.28333,-53.13334,1
189309,0.01025391,0.8754883,0.026367190000000002,-26.42822,26.36719,-8.972168,76.71753,6.47644,3.175049,1.391667,-33.06667,-52.24166,1
189579,-0.4604492,1.408691,0.49755859999999996,-0.5493163999999999,11.65771,41.68701,77.66785,5.141602,11.66199,15.225,7.233333,-4.241667,1
189829,-0.02539063,0.8496094,0.12255859999999999,14.4043,-42.23633,-18.55469,77.75024,5.2624509999999995,8.783569,16.28333,1.966667,-2.883333,1
190119,-0.22558589999999998,1.21875,-0.26269529999999996,23.80371,-25.57373,-8.666992,74.53125,3.735352,-2.554321,18.425,8.783334,0.7166667,1
190439,-0.06201172,0.8608397999999999,0.20605469999999998,6.103516,50.59814,38.94043,77.79419,6.838989,2.6477049999999998,14.20833,1.933333,-1.033333,1
190739,-0.03271484,1.073242,0.11279299999999999,6.347656,45.95947,8.300781,75.59143,6.811523,13.13416,5.641667,-33.1,-50.875,1
191109,-0.07714844,0.7758788999999999,0.1445313,-5.249023,-12.75635,-19.9585,77.69531,4.031982,22.23633,8.033334,-33.99166,-49.175,1
191369,-0.1416016,0.8222655999999999,0.2426758,-6.103516,-35.03418,-2.441406,74.10278,4.268188,14.76013,23.03333,-3.975,3.466667,1
191649,0.11279299999999999,1.047852,0.2246094,29.66309,-32.89795,0.12207029999999999,77.08557,9.536133,4.196777,13.85833,3.733333,1.366667,1
191889,-0.05078125,0.9526367,0.06542969,-12.146,25.08545,10.68115,77.92053,5.438232,7.025757,12.39167,1.133333,-4.991667,1
192099,-0.1254883,1.661621,-0.09033203000000001,62.68311,41.68701,8.605957,75.11353,6.844482,13.51318,14.3,8.583333,-5.416667,1
192309,-0.07617188,0.7441405999999999,0.22119139999999998,11.65771,-36.74316,-16.35742,76.11877,3.80127,20.33569,8.333333,-33.575,-50.775,1
192559,-0.1396484,0.8686522999999999,0.07568359,-38.45215,-71.41113,1.037598,74.4873,2.713623,12.01355,20.675,-1.733333,2.508333,1
192839,0.06787109,1.178223,0.30126949999999997,29.54102,-45.77637,-16.60156,75.97046,7.624512,6.696167,5.1,-33.34167,-52.50834,1
193119,0.01171875,0.8706054999999999,-0.02978516,-17.39502,30.45654,-6.835938,78.04688,5.597534,12.3761,7.416667,-34.30833,-50.53333,1
193419,-0.2075195,1.143066,0.36523439999999996,-22.33887,15.19775,44.7998,77.33826,5.174561,17.45728,15.28333,8.658334,-4.1,1
193659,-0.004882813000000001,0.8920897999999999,0.1279297,17.7002,-34.05762,-13.00049,77.17896,4.108887,15.06226,6.008333,-34.375,-50.43333,1
193959,-0.2519531,1.1845700000000001,-0.1538086,7.995605,-39.97803,-7.629395,73.55896,1.757813,4.768066,21.28333,5.041667,2.491667,1
194259,-0.02832031,0.8530272999999999,0.2226563,14.83154,33.08105,35.03418,77.77222,6.004028,1.499634,2.033333,-34.24166,-51.59167,1
194529,-0.2392578,1.151367,0.2993164,-0.12207029999999999,25.02441,-11.77979,77.47559,6.026001,15.55664,8.383333,-33.725,-49.15,1
194849,0.4379883,0.8647461,0.4467773,10.62012,14.28223,32.89795,77.49756000000001,1.878662,21.51672,15.65833,4.308333,0.1916667,1
195119,-0.1323242,0.9399413999999999,0.07958984,-30.27344,-63.47656,9.82666,75.02014,3.779297,13.02429,4.4,-32.75,-51.70833,1
195419,0.4160156,1.251465,0.5517578,5.615234,-6.774902,-61.4624,75.73975,5.487671,4.328613,19.9,6.366667,2.483333,1
195739,-0.05322266,0.9033203,0.04980469,-6.652832,22.46094,-0.9765625,77.20093,5.042725,8.162842,14.225,1.875,-1.5833329999999999,1
196029,0.030273440000000002,1.512695,-0.10839839999999999,-4.516602,50.41504,20.69092,75.80017,6.361084,16.35315,13.8,6.908333,1.016667,1
196239,-0.4257813,1.028809,0.2587891,-20.62988,16.96777,-6.164551,75.02563,1.983032,21.90674,13.08333,3.891667,1.891667,1
196449,-0.04003906,0.8564453,0.09082031,-1.281738,-34.11865,-8.361816,75.81665,5.19104,13.52966,15.03333,-0.55,-0.1666667,1
197779,-0.08789063,0.9042969,0.00390625,-29.66309,-60.18066,13.12256,74.78394,2.861938,13.3374,18.225,-2.725,3.708333,1
198069,0.17431639999999998,1.301758,0.14697269999999998,4.882813,-16.41846,-31.06689,77.43713,7.679443,6.877441,8.991667,-34.725,-50.05,1
198319,-0.1181641,0.7709961,0.1601563,-3.112793,21.60645,3.78418,77.88757,4.5593259999999995,14.34265,15.825,-0.325,-3.383333,1
198589,-0.04248047,1.482422,0.06152344,6.103516,7.019043,43.82324,73.75671,6.734619,17.50122,13.7,6.716667,1.308333,1
198859,-0.3300781,0.9516602,0.27001949999999997,-1.89209,7.263184,0.06103516,74.04236,2.081909,21.92322,14.81667,2.841667,1.3,1
199079,-0.11621089999999999,0.8681641,0.02148438,-10.80322,-40.34424,11.71875,74.53674,3.114624,14.65027,8.2,-35.125,-50.89167,1
199389,-0.08007813,1.018066,0.2719727,-2.624512,-40.71045,-31.18896,76.16821,8.591309,7.124634,13.63333,3.683333,0.6666667,1
199679,0.05517578,0.9204102,-0.14257809999999999,-20.62988,25.75684,-0.793457,77.45361,4.817505,5.72937,8.6,-34.74166,-50.85833,1
199989,0.0078125,0.8891602,0.48242189999999996,-36.31592,60.79102,26.48926,76.68457,1.384277,17.76489,14.11667,4.241667,1.383333,1
200289,-0.1210938,0.9018554999999999,0.125,-7.446289,-35.88867,-1.525879,75.04761,4.454956,13.47473,8.691667,-33.725,-51.65,1
200599,0.2602539,1.275879,0.5292969,9.887695,18.37158,-60.91309,75.89905,5.734863,2.570801,18.675,5.775,4.391667,1
200929,-0.1074219,0.7998046999999999,0.1054688,-6.164551,33.08105,15.13672,78.59619,5.740356,5.564575,15.51667,-1.516667,-3.041667,1
201239,-0.09228516,1.492188,0.3310547,5.187988,-1.953125,61.40137,76.44836,3.548584,12.56836,14.275,7.108333,-3.725,1
201469,-0.1098633,0.9101562999999999,0.2470703,13.42773,-2.197266,-15.31982,75.4541,1.411743,16.52344,14.75833,2.65,1.341667,1
201659,-0.1298828,0.9194336,0.02294922,4.577637,-18.98193,-4.150391,75.92651,3.696899,13.255,16.375,1.358333,-3.266667,1
201869,-0.3662109,1.118164,-0.203125,13.3667,-24.4751,-3.417969,73.75122,0.7250977,9.684448,18.91667,8.233334,0.4166667,1
202079,-0.06835938,1.128418,0.3320313,10.25391,-13.85498,-21.60645,76.02539,6.174316,6.064453,13.975,3.108333,-0.6583333,1
202289,-0.05029297,0.9565429999999999,0.08007813,-23.07129,24.35303,-0.5493163999999999,74.60266,4.273682,15.1062,10.95,-32.70833,-51.63334,1
202539,0.1855469,1.35498,-0.17382809999999999,18.85986,16.11328,6.530762,72.20764,5.905151,18.3252,15.56667,9.825,-3.366667,1
202789,-0.199707,0.8457030999999999,0.2304688,14.22119,-27.22168,-27.771,74.22913,6.174316,21.51123,14.45833,-32.48333,-49.94167,1
203059,-0.19824219999999998,0.8374022999999999,0.11669919999999999,-14.5874,-53.58887,16.29639,73.11401,4.658203,14.04602,21.225,-2.975,2.566667,1
203309,0.01416016,1.095215,0.3041992,-5.615234,-35.82764,-21.42334,75.5365,7.410278,5.932617,8.975,-32.51667,-53.45,1
203619,0.05078125,0.8940429999999999,0.001464844,-28.68652,18.9209,-7.080078,75.74524,4.960327,8.10791,17.40833,3.85,0.1333333,1
203909,0.11083979999999999,0.8164062999999999,0.4550781,-16.35742,19.71436,13.12256,76.21216,1.604004,14.60632,9.991667,-34.35833,-51.63334,1
204219,-0.03466797,0.9262695,0.04541016,-8.972168,-33.69141,-3.417969,75.56396,4.328613,7.492676,7.366667,-33.325,-54.30833,1
204479,-0.2387695,1.230469,-0.19384769999999998,42.60254,-51.45264,-11.16943,72.53723,0.9338379,1.274414,21.06667,9.383333,-0.675,1
204739,-0.08642578000000001,0.8129883,0.2382813,-5.004883,35.09521,41.44287,76.10779,5.344849,-1.7248539999999999,14.70833,2.083333,-0.08333334,1
205049,0.06298828000000001,0.8041992,0.1518555,3.356934,68.29834,-7.568359,72.24609,4.899902,12.95288,25.49167,3.35,-3.9333329999999997,1
205349,-0.3666992,0.8671875,0.30273439999999996,2.13623,-5.67627,-7.629395,73.56995,3.598022,21.72546,14.43333,3.508333,1.791667,1
205689,-0.08691406,0.9052734,-0.022460940000000002,-13.30566,-49.92676,13.18359,75.32227,4.685669,8.355103,20.30833,-2.233333,2.55,1
205889,-0.2685547,0.9453125,0.4018555,-3.417969,9.94873,-42.05322,76.89331,7.822266,4.746094,20.24167,5.158333,0.6000000000000001,1
206109,0.007324219000000001,0.7866211,0.1694336,5.92041,13.91602,36.68213,78.57422,7.866211,1.3348389999999999,14.15,1.058333,1.791667,1
206319,0.02978516,0.949707,-0.13525389999999998,-27.46582,26.30615,-6.408691,78.25012,5.888672,6.965332,19.3,2.566667,-1.633333,1
206529,-0.4091797,0.7255859,0.3842773,-48.40088,40.83252,14.4043,75.44312,1.340332,14.90295,9.725,-33.53333,-50.71667,1
206899,-0.1040039,0.8295897999999999,0.1132813,-27.58789,-45.41016,-5.92041,73.45459,4.658203,8.069458,16.475,2.591667,-0.9166667,1
207139,-0.3510742,1.320801,-0.2426758,39.48975,-79.22363,-23.31543,73.25684,1.71936,-0.8843994,15.7,7.158333,-4.233333,1
207359,-0.02539063,0.8081054999999999,0.215332,2.197266,47.79053,35.94971,77.84363,4.795532,-2.834473,4.266667,-34.0,-52.675,1
207649,-0.27001949999999997,1.114746,-0.0004882813,18.85986,14.4043,20.62988,77.18445,4.411011,6.465454,23.175,2.233333,-1.775,1
207969,-0.1181641,0.7988280999999999,0.1640625,7.8125,-1.953125,-27.64893,76.62415,1.625977,9.569092,14.76667,1.608333,-0.075,1
208239,-0.2954102,0.8862304999999999,0.1875,-17.7002,-27.16064,18.9209,74.36096,2.005005,7.289429,5.45,-33.39167,-54.51667,1
208509,-0.3554688,0.9238280999999999,0.46679689999999996,-3.845215,26.06201,-23.62061,74.88281,6.992798,5.372314,17.03333,4.275,-0.30000000000000004,1
208789,-0.07714844,0.8579102,0.10693359999999999,-6.103516,26.24512,8.239746,76.13525,4.905396,9.179077,16.14167,-0.7416667,-2.433333,1
209059,-0.1342773,1.228516,0.4541016,-0.12207029999999999,42.96875,29.11377,75.97595,4.400024,18.429570000000002,15.95,6.425,-2.583333,1
209389,-0.07714844,0.8471679999999999,0.06738281,14.83154,-37.17041,-17.27295,76.63513,4.691162,19.6051,17.26667,0.5833332999999999,-2.883333,1
209669,-0.3349609,1.359375,0.01269531,24.04785,-42.48047,-35.82764,75.62439,4.196777,10.15137,13.25833,8.408334,-1.525,1
209999,-0.03955078,0.8637695,0.10644529999999999,7.202148,15.86914,21.11816,77.37122,7.470703,6.38855,14.59167,0.45,-1.9916669999999999,1
210309,-0.2402344,1.519043,0.05859375,14.5874,7.324219,40.03906,73.99292,7.7398679999999995,13.61755,12.95,5.8,-1.733333,1
210539,-0.3032227,0.9223633,0.3139648,-27.52686,20.99609,3.78418,74.328,2.246704,15.82581,12.88333,3.675,1.208333,1
210759,-0.175293,1.028809,-0.01074219,-14.09912,-50.23193,5.371094,73.96545,4.284668,10.00305,8.616667,-34.34167,-53.36666,1
210999,0.25488279999999996,1.192383,0.6245117,-7.324219,-6.103516,-60.66895,74.40491,6.009521,4.070435,20.2,5.533333,1.7083329999999999,1
211239,-0.09326172,0.7587891,0.1289063,-9.338379,39.55078,13.42773,75.27283,5.130615,5.185547,8.166667,-33.975,-52.61666,1
211489,-0.08691406,1.073242,0.2773438,17.15088,38.26904,7.141113,72.34497,7.338867,11.59607,21.975,4.925,-0.5416667,1
211769,-0.24511719999999998,0.7548828,0.2905273,18.9209,-21.97266,-32.10449,73.14148,2.955322,20.07751,11.65833,-34.03333,-49.89167,1
212069,-0.1533203,0.8330078,0.20605469999999998,-0.42724609999999996,-42.17529,12.02393,72.11426,2.504883,6.322632,26.68333,-0.1,2.733333,1
212369,0.004394531,0.9365234,0.2192383,-3.967285,16.60156,26.97754,76.71753,8.322144,-1.757813,14.35,2.941667,1.55,1
212679,-0.002929688,0.8481445,0.03955078,-28.9917,32.40967,-11.71875,74.81689,6.278687,8.530884,19.94167,-1.141667,1.808333,1
213009,-0.09521484000000001,0.9379883,0.40625000000000006,-27.771,48.0957,8.239746,73.74573,1.856689,14.41406,13.225,3.783333,0.9416667,1
213279,-0.21337889999999998,0.9130859,0.10644529999999999,-19.71436,-36.19385,8.789063,73.27881000000001,3.80127,11.34338,7.091667,-32.45,-51.83333,1
213549,0.2265625,1.441895,0.4404297,6.347656,-14.46533,-57.37305,75.60242,4.960327,5.020752,15.25833,8.275,1.508333,1
214899,-0.05371094,1.210938,0.2666016,1.220703,-24.23096,-24.96338,75.16296,7.7398679999999995,-4.295654,13.625,3.791667,0.03333333,1
215209,0.01269531,0.965332,0.001953125,-31.98242,36.37695,-10.74219,74.99268000000001,5.493164,2.735596,19.43333,2.558333,-1.15,1
215509,-0.002929688,0.8046875,0.36425779999999996,-24.78027,48.52295,4.943848,74.38843,2.059937,12.33765,13.73333,4.275,2.05,1
215879,0.046875,0.9482421999999999,0.2421875,-14.77051,-28.50342,11.77979,72.59766,2.642212,2.581787,2.983333,-30.88333,-55.04167,1
216139,-0.41210939999999996,0.8027344,0.5507813,-1.89209,17.57813,-22.2168,73.61938,5.861206,0.6317138999999999,16.36667,4.8,-0.3833333,1
216389,-0.03417969,0.8808594,0.1171875,12.57324,27.83203,4.272461,75.96497,4.103394,5.020752,6.583333,-32.125,-52.925,1
216629,-0.1567383,1.131836,0.08740234,-4.882813,18.31055,1.89209,73.80615,6.311646,11.53564,19.20833,8.125,-0.1166667,1
216869,-0.1948242,0.7573242,0.2280273,4.577637,-15.13672,-22.88818,73.26233,2.60376,19.50073,11.89167,-31.725,-51.84167,1
217119,-0.07861328000000001,0.8647461,0.03125,-2.685547,-42.3584,2.258301,73.88855,3.625488,13.20557,17.60833,3.958333,1.25,1
217389,-0.05126953,1.6850589999999999,0.1396484,23.68164,12.69531,-53.4668,74.54773,3.422241,9.151611,11.46667,7.875,-0.6916667,1
217609,-0.05126953,1.6850589999999999,0.1396484,23.68164,12.69531,-53.4668,74.54773,3.422241,9.151611,12.55833,3.225,0.75,1
217819,-0.06005859,0.9101562999999999,0.03759766,-5.493164,10.0708,-0.6103516,75.33325,5.064697,11.63452,13.13333,2.466667,-1.341667,1
218029,0.21386719999999998,0.9311522999999999,0.36572269999999996,13.24463,23.98682,35.52246,75.75073,2.356567,20.45105,13.56667,-35.09167,-49.18333,1
218319,-0.15820309999999999,0.8095703,0.109375,-9.399414,-30.27344,-7.080078,75.20142,5.696411,20.91797,16.68333,0.4,-4.0,1
218639,0.1489258,1.012207,0.4013672,1.7700200000000001,18.98193,-51.69678,73.02063,6.514893,11.53015,20.4,5.325,0.8333332999999999,1
218909,-0.024902340000000002,0.8100586,0.1630859,-8.361816,39.42871,21.91162,75.41016,4.476929,15.14465,12.6,-34.23333,-51.31667,1
219179,-0.1416016,0.8544921999999999,0.4248047,-17.27295,28.80859,-10.0708,71.47156,6.893921,21.64307,28.19167,1.433333,-1.491667,1
219429,-0.24121089999999998,0.824707,0.3349609,0.0,1.586914,-9.58252,71.92749,3.609009,29.15771,17.14167,-33.70833,-48.70833,1
219739,-0.14306639999999998,0.8178711,0.1420898,-14.95361,-40.52734,20.62988,72.03735,3.883667,18.45154,21.975,-3.883333,2.8,1
220069,0.01220703,1.271973,0.2680664,-1.098633,-14.34326,-23.25439,74.54773,8.085938,12.8595,13.866670000000001,3.708333,0.7916667,1
220379,-0.03222656,0.9780272999999999,0.04931641,-37.23145,43.88428,-9.70459,72.99866,6.459961,25.00488,18.41667,3.4,1.766667,1
220609,-0.1489258,1.38916,0.3911133,11.71875,13.97705,47.11914,73.63037,5.789795,31.19019,15.08333,6.283333,-3.333333,1
220799,-0.10888669999999999,0.8295897999999999,0.2119141,10.74219,6.469727,-12.26807,73.32275,3.78479,37.89734,15.3,1.025,1.4583329999999999,1
221009,-0.20605469999999998,0.7783203,-0.02148438,-8.666992,-30.2124,-1.6479489999999999,73.2843,5.147095,37.43591,19.13333,1.925,4.983333,1
221229,0.46582029999999996,1.663086,0.5410155999999999,36.01074,14.03809,-82.27539,76.4978,6.405029,33.10181,20.44167,6.108333,7.225,1
221439,-0.01367188,0.8305663999999999,0.08203125,-5.310059,14.5874,14.52637,78.62366,6.789551,29.45984,19.79167,-36.125,-43.24166,1
221679,0.005859375,0.8959961,0.3505859,-9.216309,50.84229,-3.4790039999999998,72.97119,7.77832,34.43115,29.7,3.158333,-4.166667,1
221939,-0.2817383,0.8950195,0.3144531,-4.089355,13.85498,-1.7700200000000001,72.57019,4.702148,45.50537,13.15,4.2,1.75,1
222229,-0.1113281,0.8032227,0.1420898,-26.79443,-20.20264,-0.5493163999999999,72.52075,5.828247,42.60498,16.38333,1.183333,-2.583333,1
222459,-0.02001953,0.9018554999999999,0.6762695,14.77051,39.0625,-61.21826,72.94373,6.690674,34.17847,22.33333,-33.275,-44.175,1
222739,-0.1450195,0.8334961,0.09619141,-8.911133,32.22656,11.16943,76.00891,5.762329,38.172,15.48333,0.7000000000000001,-3.041667,1
223089,-0.3344727,1.229004,0.5683594,-12.26807,13.06152,46.75293,73.94897,5.85022,45.52185,17.86667,7.45,-3.775,1
223359,-0.04052734,0.8588867,0.11279299999999999,10.49805,-26.61133,-10.25391,74.13025,5.388794,46.69189,14.1,1.366667,0.2333333,1
223659,-0.08984375,1.635254,0.1635742,26.61133,-11.84082,-51.02539,73.15796,2.658691,37.39197,21.58333,-35.34167,-41.925,1
223969,-0.05957031,0.7578125,0.2045898,-1.8310549999999999,44.00635,30.0293,76.04187,6.212769,40.83069,13.25833,1.8,-1.808333,1
224309,0.08105469,1.680664,-0.1259766,27.03857,35.40039,15.25879,74.54773,8.371582,51.43799,13.81667,9.475,-0.4583333,1
224579,-0.19042969999999998,0.7690429999999999,0.1958008,17.57813,-45.8374,-33.44727,75.06958,5.037231,53.93738,14.98333,0.9,0.15833329999999998,1
224949,0.19042969999999998,1.107422,0.5361328,10.74219,21.85059,-54.50439,75.18494,6.416016,39.34204,23.925,-34.70833,-39.74166,1
225209,0.041015630000000004,0.7270508,0.1889648,8.117676,46.93604,33.02002,76.57471,6.817017,41.56677,13.725,1.366667,-2.408333,1
225459,-0.009765625,0.8911133,0.030273440000000002,-36.37695,33.14209,-21.60645,73.29529,8.113403,50.60852,18.175,-0.8166667,3.166667,1
225669,-0.5424804999999999,1.276855,0.6020508,2.258301,-9.887695,53.58887,74.37744,5.690918,54.12964,20.05833,5.791667,-3.641667,1
225879,-0.06494141,0.8232421999999999,0.09179688,9.82666,-51.81885,-8.911133,74.29504,5.229492,48.42224,23.41667,-36.675,-37.15,1
226159,0.1210938,1.003418,0.453125,0.9765625,22.03369,-47.05811,73.77319,4.839478,40.08911,20.58333,3.391667,-2.875,1
226469,-0.125,0.7832030999999999,0.08544922,-12.39014,34.85107,2.319336,75.81116,5.103149,48.75183,24.80833,-36.425,-34.65833,1
226779,-0.5708008,1.054688,0.5087891,-0.6713867,-35.03418,60.72998,73.01514,5.130615,53.62976,18.61667,5.616667,-2.716667,1
227099,-0.046875,0.8994141,0.06591797,14.95361,-30.45654,-1.464844,74.27307,3.955078,48.63647,13.79167,0.8333332999999999,-2.258333,1
227379,0.09423828000000001,1.015625,0.6035155999999999,-4.821777,16.17432,-57.18994,75.38269,4.312134,40.72083,23.80833,-35.825,-37.59167,1
227649,0.06982422,0.7861328,0.15869139999999998,11.1084,32.89795,25.39063,77.71729,5.872192,41.80847,15.75,0.7833333,-0.075,1
227889,-0.2587891,0.918457,0.1616211,-1.525879,-7.019043,-7.995605,72.98767,7.437744,52.42126,27.20833,-35.675,-32.0,1
228199,-0.030273440000000002,0.8037109,0.2773438,13.30566,2.685547,-29.90723,72.76794,3.197021,56.66748,13.54167,2.35,3.016667,1
228529,-0.017089840000000002,0.8310546999999999,0.25,19.28711,-41.99219,7.080078,71.54846,2.026978,47.62573,26.38333,7.791667,3.6,1
228799,-0.07519531,0.8691405999999999,0.2319336,20.69092,9.277344,37.29248,76.35498,7.355347,40.34729,14.88333,1.425,0.9166667,1
229139,-0.01611328,0.9208984,0.26318359999999996,0.0,48.76709,-6.9580079999999995,73.2019,7.520142,51.26221,26.725,0.025,0.4333333,1
229409,-0.3320313,0.8959961,0.2973633,-5.737305,-4.150391,-4.089355,74.18518,3.02124,58.57361,14.10833,3.4,2.741667,1
229819,-0.1411133,1.156738,-0.09716797,14.77051,-14.03809,-10.19287,74.45984,2.702637,43.6322,20.91667,6.625,0.65,1
230079,-0.09667969,0.9921875,0.3623047,4.577637,-46.56982,-13.18359,75.53101,7.619019,39.90784,15.175,2.816667,0.3083333,1
230289,-0.09960938,0.8520508,0.1489258,-7.080078,27.58789,11.16943,76.53076,5.625,41.36902,15.04167,1.108333,-3.05,1
230499,-0.1137695,1.518066,0.05957031,14.22119,10.92529,48.76709,73.87207,7.185059,48.68042,26.85833,-35.80833,-33.94167,1
230739,-0.21435549999999998,0.8149413999999999,0.32568359999999996,2.01416,2.197266,-5.065918,72.82837,2.713623,51.63574,13.35833,3.733333,2.175,1
232099,-0.09375000000000001,0.7485352,0.2006836,12.51221,-37.53662,-18.55469,75.15198,3.208008,45.08789,15.85,1.666667,1.308333,1
232309,-0.09375000000000001,0.7485352,0.2006836,12.51221,-37.53662,-18.55469,75.15198,3.208008,45.08789,17.9,0.925,0.7333333,1
232519,0.2592773,1.467773,0.328125,4.882813,-30.70068,-58.41064,76.67908,2.949829,34.837650000000004,16.0,7.05,0.5,1
232729,-0.06103516,0.8623046999999999,0.12255859999999999,-2.807617,48.40088,21.24023,78.82141,4.954834,38.27087,15.991670000000001,0.7083332999999999,-2.183333,1
233009,0.06884766,0.7666016,0.1308594,-29.60205,45.41016,-8.300781,74.87183,5.811768,45.50537,25.96667,-1.5833329999999999,2.15,1
233249,-0.3530273,0.9736328,0.2983398,-23.31543,13.3667,1.525879,73.67981,2.521362,55.14038,14.08333,3.791667,1.858333,1
233519,-0.1201172,0.9301758,0.024902340000000002,-12.81738,-42.23633,10.13184,74.14673,4.037476,45.36255,24.15,-38.43333,-36.075,1
233829,-0.4946289,0.8613280999999999,0.42724609999999996,8.972168,-32.77588,-35.33936,76.14624,8.959351,38.73779,27.575,-34.38334,-37.125,1
234099,-0.03173828,0.8481445,0.11474609999999999,-6.408691,35.82764,21.24023,78.20618,6.05896,39.84741,15.00833,1.816667,-4.616667,1
234349,0.05078125,0.7792969,0.1323242,2.502441,55.66406,1.037598,72.57019,7.932129,45.36255,27.84167,-0.17500000000000002,-0.7916667,1
234589,-0.2324219,0.9648437999999999,0.3457031,-25.81787,21.72852,2.258301,73.24585,2.290649,51.87195,14.30833,3.241667,3.358333,1
234869,-0.1103516,0.9223633,0.03271484,-17.8833,-40.95459,9.338379,73.28979,3.702393,44.21997,18.075,0.47500000000000003,2.541667,1
235099,0.2768555,1.280762,0.4760742,4.089355,31.37207,-52.97852,74.87183,5.52063,39.34204,20.46667,6.383333,2.608333,1
235319,-0.006835938000000001,0.8686522999999999,0.175293,6.103516,16.78467,29.11377,76.70105,5.921631,37.86987,14.09167,1.541667,-0.775,1
235529,-0.05566406,0.8085937999999999,0.2651367,-13.97705,52.6123,-8.056641,72.05383,7.333374,46.37329,29.425,-34.625,-34.15,1
235769,0.11621089999999999,0.9301758,0.3823242,29.29688,0.42724609999999996,31.55518,74.14673,3.548584,51.68518,14.866670000000001,5.425,-1.758333,1
236009,-0.09472656,0.8588867,0.14257809999999999,-3.2958979999999998,-33.93555,-10.37598,74.34998,5.421753,47.92786,27.925,-36.7,-33.6,1
236259,-0.04052734,0.9687500000000001,0.15478519999999998,9.94873,-20.75195,7.141113,71.94397,2.543335,41.75354,24.39167,8.041667,-0.7666666999999999,1
236539,-0.2924805,0.8022461,0.4946289,3.78418,-37.90283,-14.89258,73.63037,7.893677,37.73804,16.55833,2.875,3.1,1
236749,-0.04345703,0.8530272999999999,0.1884766,2.563477,35.27832,22.82715,76.69006,5.152588,40.69336,14.425,1.633333,-1.508333,1
236969,0.09375000000000001,1.336914,-0.22070309999999999,24.23096,29.29688,5.737305,74.14124,7.580566,49.01001,18.625,8.541667,-3.416667,1
237239,-0.1958008,0.8310546999999999,0.2348633,27.83203,-29.90723,-30.27344,74.69604,4.196777,53.85498,27.99167,-37.575,-31.26667,1
237509,-0.06835938,0.8974609,0.04394531,-23.86475,-43.21289,10.31494,73.7677,4.498901,45.61523,17.325,2.216667,1.2,1
237749,0.08398438,1.252441,0.3911133,41.87012,-62.37793,-18.79883,74.50928,8.629761,38.83118,28.08333,-32.73333,-39.21667,1
238059,-0.08447266,0.8867187999999999,0.008300781,-9.216309,14.52637,-11.47461,76.40991,4.899902,43.64868,27.025,-35.30833,-34.93333,1
238329,-0.171875,1.571289,0.1420898,-13.00049,32.95898,53.58887,75.20142,6.82251,49.21326,15.375,8.225,-0.6083333,1
238589,-0.05908203,0.8471679999999999,0.1552734,20.32471,-65.49072,-30.94482,75.64636,4.174805,49.08142,14.425,1.35,-0.45,1
238889,-0.27001949999999997,1.201172,-0.22070309999999999,13.30566,-12.63428,-13.12256,74.28406,2.1698,38.1665,19.15,8.766666,-0.05833333,1
239229,-0.01171875,0.8237304999999999,0.20507809999999999,5.92041,27.34375,35.52246,77.37122,6.80603,36.36475,14.76667,1.5833329999999999,0.625,1
239429,0.02001953,0.8989258,-0.060546880000000004,-20.69092,14.89258,-14.46533,77.2998,5.213013,41.25916,17.14167,6.15,-2.75,1
239649,0.2998047,0.9399413999999999,0.4780273,3.601074,25.87891,31.25,75.44312,2.763062,47.95532,22.24167,-33.79167,-33.08333,1
239919,-0.09716797,0.7666016,0.1723633,14.83154,-49.62158,-27.40479,75.6958,4.306641,48.900150000000004,14.68333,1.2,-1.041667,1
240159,-0.09228516,0.7768554999999999,0.07080078000000001,-13.18359,-50.90332,12.81738,73.07007,2.658691,38.52905,21.48333,-3.941667,1.758333,1
240379,0.06445313,1.162109,0.2075195,-9.643555,20.93506,8.300781,75.55847,7.910156,28.21289,13.34167,3.975,-0.5750000000000001,1
240649,-0.144043,0.8144530999999999,0.1567383,-19.40918,37.47559,9.643555,74.81689,5.822754,37.85889,13.6,0.375,-2.45,1
240869,-0.3583984,1.243164,0.45068359999999996,3.234863,-15.86914,57.49512,74.06982,6.036987,43.99475,25.20833,-34.29167,-37.475,1
241139,-0.1606445,0.8471679999999999,0.2431641,16.60156,-36.31592,-29.96826,74.29504,3.894653,43.53333,15.425,1.933333,1.275,1
241379,0.008300781,1.000488,0.2011719,3.967285,-10.49805,8.178711,72.5592,2.757568,30.8551,21.08333,-34.3,-44.825,1
241689,-0.08544922,0.902832,0.2397461,7.507324,14.83154,29.96826,75.47058,8.162842,27.41638,13.3,3.116667,0.5416667,1
241989,0.04589844,0.7172852,0.04248047,-19.16504,39.36768,-0.5493163999999999,74.84985,5.29541,35.55725,25.25833,-35.125,-39.74166,1
242289,-0.4648438,0.9423828,0.34130859999999996,-41.80908,60.60791,11.47461,73.94897,0.6701659999999999,46.604,23.94167,-38.91667,-36.15833,1
242559,-0.10693359999999999,0.8720703,0.12255859999999999,9.155273,-14.70947,-3.78418,74.23462,3.334351,47.51587,15.39167,0.04166667,-0.1416667,1
242809,0.5244141,1.547363,0.5141602,4.516602,1.281738,-77.57568,76.06384,4.0979,38.98499,19.19167,7.65,1.65,1
243119,-0.1381836,0.8442383,0.08691406,-0.42724609999999996,31.06689,7.080078,77.11853,5.586548,42.48413,16.71667,-1.033333,-3.108333,1
243419,-0.23779299999999998,1.483398,0.2524414,-2.01416,15.625,44.18945,74.77295,6.465454,48.82324,14.925,6.766667,-1.55,1
243759,-0.056640630000000004,0.7866211,0.1318359,4.211426,-27.52686,-16.41846,75.80017,3.817749,50.97656,15.20833,-0.36666669999999996,1.283333,1
243999,-0.109375,1.617188,0.11474609999999999,8.789063,-38.45215,-36.49902,76.4978,3.147583,41.715090000000004,25.3,-38.45,-36.19167,1
244239,0.1757813,0.9589844,0.1416016,6.469727,9.460449,28.13721,77.71179,7.366333,36.49658,14.80833,2.15,0.4333333,1
244479,-0.056640630000000004,0.9609375,0.01074219,-45.47119,34.91211,-7.019043,73.76221,6.064453,44.21448,27.375,-36.88334,-35.78333,1
244749,-0.8178711,1.227539,0.6557617,-9.521484,-5.67627,54.50439,73.08105,3.9990229999999998,50.72388,19.275,5.875,-2.191667,1
244999,-0.06591797,0.7172852,0.206543,16.47949,-17.27295,-26.55029,73.64136,3.894653,52.08618,14.89167,1.383333,2.125,1
245219,0.044921880000000004,1.138184,-0.05810547,18.12744,-12.146,-13.00049,73.89954,2.021484,42.12158,24.56667,-38.26667,-37.725,1
245499,-0.0546875,0.7080078,0.2163086,8.605957,28.25928,28.07617,76.52527,7.3718259999999995,37.66113,27.0,-36.25834,-37.00834,1
245789,-0.04785156,0.9360352,0.001953125,-30.88379,18.12744,-15.99121,74.96521,6.987305,45.65918,15.725,5.783333,-0.17500000000000002,1
246039,0.265625,0.8491211,0.46533199999999997,-20.32471,23.80371,22.03369,72.38892,2.944336,49.64722,13.475,4.616667,2.875,1
246309,-0.0546875,0.8339844,0.04785156,4.272461,-34.48486,0.42724609999999996,72.6416,5.064697,44.48364,25.94167,-37.21667,-37.54167,1
246579,-0.15087889999999998,1.5541989999999999,0.11279299999999999,25.45166,-18.37158,-51.51367,73.63037,2.785034,38.24341,14.48333,8.283334,-0.05,1
246849,-0.01269531,0.8437500000000001,0.1196289,9.399414,58.71582,29.23584,75.84961,6.075439,42.12708,13.03333,2.008333,-1.791667,1
247119,-0.12402339999999999,1.519531,0.04736328,13.30566,9.521484,41.3208,74.4928,7.877197,49.87244,28.525,-37.725,-31.325,1
248499,-0.13525389999999998,0.9555663999999999,0.5180663999999999,-5.92041,-9.887695,45.16602,74.98718,3.696899,50.55359,17.75,5.158333,-2.758333,1
248749,-0.1201172,0.8701171999999999,0.1201172,-0.793457,-31.67725,-1.8310549999999999,74.82239,4.998779,50.27893,16.13333,-0.35000000000000003,-1.741667,1
249089,0.21777339999999998,1.195801,0.4150391,0.6103516,30.82275,-74.46289,73.97644,4.75708,40.06165,20.2,7.65,3.816667,1
249289,0.01269531,0.9233397999999999,0.22119139999999998,13.18359,18.9209,23.07129,75.50903,8.453979,38.07312,12.9,3.4,-0.5416667,1
249499,0.002929688,0.7919921999999999,0.1054688,-24.29199,28.86963,-7.507324,74.85535,6.295166,44.01123,13.55833,4.375,0.2916667,1
249689,-0.01855469,1.5512700000000001,-0.008300781,3.4790039999999998,24.04785,25.63477,74.52576,7.7618409999999995,51.97083,13.16667,8.175,0.9083334,1
249899,-0.328125,0.9106445,0.2734375,-2.685547,22.82715,-9.460449,74.6521,2.894897,58.20007,14.79167,2.725,1.425,1
250109,-0.0859375,0.9580078,0.05078125,-27.28271,-58.65479,6.9580079999999995,74.19617,4.196777,47.55432,25.85,-38.83333,-34.81667,1
250359,0.1772461,1.150391,0.5512695,12.20703,2.075195,-67.07764,74.54224,5.141602,42.09961,20.30833,6.258333,0.7333333,1
250639,-0.03759766,0.8276367,0.1762695,10.92529,30.09033,34.91211,75.79468,7.410278,41.29211,14.00833,2.55,-0.2583333,1
250849,0.02832031,1.614746,-2.213379,-239.7461,835.5713,68.29834,48.7738,17.9187,0.0,16.175,4.433333,0.8916666,1
251059,0.33398439999999996,0.9707030999999999,0.4057617,-4.455566,28.93066,35.33936,75.56946,2.323608,54.45923,15.03333,4.725,1.675,1
251339,-0.11279299999999999,0.8808594,0.1337891,-1.525879,-35.7666,-5.310059,76.21216,4.77356,52.98706,26.26667,-40.01667,-30.6,1
251609,-0.15136719999999998,0.9526367,0.08251953000000001,-5.493164,-7.202148,7.385254,73.77319,1.466675,49.07043,24.10833,6.8,-0.9333332999999999,1
251849,-0.009277344,0.9770508,0.1948242,8.666992,14.89258,16.35742,75.52002,6.877441,43.35754,26.70833,-37.375,-34.95,1
252159,0.0078125,0.8115234,0.09716797,-29.05273,50.47607,-6.408691,72.14722,6.558838,52.45972,28.55,-37.325,-31.09167,1
252429,-0.574707,1.119629,0.4638672,-29.47998,-51.75781,67.38281,73.24585,3.7408449999999998,58.22205,17.30833,6.083333,-2.5,1
252679,-0.1772461,0.8120117,0.1489258,17.63916,-17.82227,-6.04248,72.44385,4.77356,59.54041,14.05,-0.3833333,-0.1166667,1
252979,0.184082,1.366211,0.3457031,14.77051,19.34814,-62.74414,77.23389,5.570068,51.78406,21.78333,4.8,3.608333,1
253329,-0.028808590000000002,0.8515625,0.11669919999999999,0.793457,8.789063,8.239746,77.85461,5.278931,49.30115,15.31667,-0.30000000000000004,-3.275,1
253519,-0.07666016,0.9638671999999999,0.3349609,-5.981445,23.55957,-3.2958979999999998,73.90503,5.85022,53.5199,23.90833,2.141667,1.491667,1
253739,-0.2319336,0.8637695,0.3134766,2.380371,5.310059,-15.625,74.63562,1.928101,61.94641,25.10833,-43.125,-25.75,1
254009,-0.0859375,0.8852538999999999,0.060546880000000004,1.403809,-27.58789,2.685547,75.77271,3.378296,57.44751,14.6,0.4,-0.2333333,1
254249,-0.2929688,1.111328,-0.2158203,15.80811,-34.85107,-5.737305,75.84412,-0.2252197,52.92664,21.51667,8.35,-0.15,1
254459,0.01416016,0.8242187999999999,0.1640625,-2.502441,70.73975,29.90723,77.2998,4.614258,61.1554,26.325,-42.96667,-22.5,1
254709,-0.1303711,0.8999022999999999,0.03125,-34.5459,48.9502,-8.178711,74.8114,5.07019,72.77344,16.28333,3.766667,-0.9333332999999999,1
254959,-0.3305664,1.376465,0.2714844,4.02832,15.25879,46.08154,73.00964,7.46521,80.44189,15.28333,6.8,-2.208333,1
255179,-0.1293945,0.7812500000000001,0.2080078,15.31982,-22.52197,-21.66748,74.40491,6.690674,84.38049,14.925,1.283333,-0.7333333,1
255469,-0.1176758,0.8740234,0.2348633,8.239746,-32.71484,11.71875,72.70752,5.800781,77.3053,22.45833,-6.591667,3.391667,1
255699,0.06787109,1.199707,0.2524414,8.117676,0.3662109,5.065918,76.14075,9.030762,66.30249,29.175,-39.91667,-19.25833,1
255959,-0.1259766,0.8115234,0.08691406,-20.50781,54.32129,14.34326,78.17871,6.828003,74.63013,15.58333,-1.325,-5.316667,1
256209,-0.5322266,1.475098,0.7626953,1.8310549999999999,-0.3662109,45.71533,73.87207,8.970337,89.31885,19.3,7.608333,-2.9,1
256519,-0.1357422,0.8789062999999999,0.18652339999999998,11.41357,-56.45752,-29.35791,73.69629,7.229004,83.10059,15.225,0.8583333999999999,-1.158333,1
256779,0.22949219999999998,1.430664,0.5444336,20.20264,-44.43359,-48.58398,72.50977,4.812012,68.84583,27.675,-40.90833,-22.075,1
257099,-0.011230470000000001,0.8530272999999999,0.1923828,-5.065918,48.58398,24.84131,76.06384,7.108154,71.57043,27.44167,-42.25,-17.43333,1
257399,0.21875000000000003,1.396973,-0.05126953,0.7324219,38.26904,8.911133,73.83362,8.728638,82.09534,11.24167,9.416667,-3.391667,1
257769,-0.06494141,0.8315429999999999,0.12060549999999999,-5.92041,-40.89355,-8.483887,74.80042,7.102661,82.67761,25.88333,-44.0,-13.89167,1
258009,-0.2192383,1.121094,-0.002929688,18.73779,-16.6626,-2.01416,71.77368,4.614258,78.12927,19.375,6.216667,-3.241667,1
258279,-0.25,0.9545897999999999,0.203125,-9.277344,23.98682,6.408691,74.68506000000001,8.756104,76.24512,12.425,4.233333,0.3833333,1
258489,-0.0625,0.8696288999999999,0.1259766,15.80811,8.056641,0.3662109,76.09131000000001,5.2624509999999995,80.06836,16.55,0.1416667,-4.175,1
258699,-0.31005859999999996,1.187012,0.5927734,-1.525879,-16.54053,53.10059,74.94873,3.90564,87.72583,20.975,-47.30833,-10.79167,1
258969,-0.128418,0.7397461,0.1928711,9.643555,-17.51709,-28.25928,74.27307,3.861694,90.28015,14.66667,2.075,1.825,1
259189,-0.09912109000000001,0.8979492,-0.03125,-9.033203,-50.23193,-1.525879,74.36646,4.257202,82.58423,19.64167,1.6,0.9,1
259409,0.06640625,1.139648,0.3662109,15.50293,-63.41553,-18.24951,74.729,9.695435,77.26685,28.825,-40.64167,-16.06667,1
259679,-0.04003906,0.7905272999999999,0.19433589999999998,-12.02393,35.03418,13.00049,75.6958,6.828003,80.95825,15.35,0.675,-3.541667,1
259919,-0.2954102,1.444336,0.5117188,-14.4043,16.54053,37.59766,73.88306,8.459473,90.18127,22.65833,-46.175,-10.78333,1
260199,-0.0390625,0.9458008,0.1181641,12.51221,-49.68262,-5.249023,74.96521,5.734863,84.60571,24.84167,-45.1,-12.68333,1
260499,-0.007324219000000001,0.9501953,0.2431641,6.774902,-21.30127,9.094238,73.02063,2.9827879999999998,77.37671,25.8,2.7,2.441667,1
260739,-0.0625,0.9208984,0.2666016,5.249023,5.065918,11.47461,76.2616,8.964844,74.93774,28.35833,-41.375,-15.46667,1
261009,0.04345703,0.8061522999999999,0.078125,-47.30225,32.83691,-13.67188,73.77869,7.487183,81.40869,27.53333,-42.54167,-13.89167,1
261319,-0.175293,1.118164,0.6743163999999999,-9.338379,-5.187988,59.57031,74.24561,5.41626,86.06689,17.44167,5.308333,-1.341667,1
261599,-0.002929688,0.8813477,0.06982422,-15.80811,-46.20361,1.7700200000000001,73.25134,5.993042,76.77795,26.84167,-43.35833,-18.28333,1
261929,-0.4384766,0.8808594,0.45947269999999996,19.71436,-44.7998,-26.67236,73.81165,7.602539,68.89526,30.525,-38.21667,-22.775,1
262299,-0.1479492,0.8041992,0.05371094,-16.11328,25.26855,-2.990723,75.69031,5.586548,73.08655,11.94167,3.791667,-2.591667,1
262509,-0.30957029999999996,1.684082,0.13476559999999999,3.967285,-0.24414059999999999,48.15674,73.43811,7.261963,79.61792,16.49167,8.55,-1.25,1
262719,-0.21777339999999998,0.7543945,0.2880859,1.098633,-4.211426,-15.99121,73.07007,3.076172,81.8042,14.25,3.716667,2.441667,1
262929,-0.11865229999999999,0.8159179999999999,0.09619141,-3.540039,-32.10449,25.75684,73.01514,3.03772,71.47705,24.925,-44.65833,-21.26667,1
263179,-0.08251953000000001,1.082031,0.4941406,15.68604,15.31982,-46.20361,75.5365,5.114136,68.23608,19.5,4.266667,-2.0,1
263409,-0.03320313,0.8232421999999999,0.2324219,4.02832,48.58398,32.95898,76.92078,5.592041,72.09229,14.79167,2.066667,0.05,1
264729,-0.03369141,0.8041992,0.1640625,14.03809,14.28223,22.46094,77.45361,6.245728,79.26086,14.08333,1.8333329999999999,-2.125,1
264949,0.08056641,0.7524413999999999,0.12695309999999999,-38.45215,40.58838,-10.62012,73.19641,7.602539,82.34802,25.78333,-0.3916667,5.391667,1
265159,-0.4291992,1.09082,0.2602539,-5.187988,21.85059,-10.55908,74.38843,1.9006349999999999,91.17004,13.05833,3.183333,2.333333,1
265439,-0.07373047,0.8852538999999999,0.05859375,2.13623,-13.42773,4.699707,76.83289,3.273926,87.78625,16.25833,-0.6083333,-1.408333,1
265679,-0.1113281,1.208496,0.42822269999999996,8.972168,2.990723,-38.94043,77.3877,6.157837,77.40967,20.10833,3.325,-1.358333,1
265949,-0.04345703,0.9252929999999999,0.1118164,-14.46533,36.37695,0.0,77.948,4.614258,81.77124,25.08333,-44.43333,-10.90833,1
266259,-0.3706055,1.321289,0.2006836,-16.54053,33.02002,25.81787,73.46558,8.953857,87.73682,25.49167,-43.98333,-10.44167,1
266529,-0.2431641,0.8671875,0.3007813,-2.624512,-4.02832,-3.356934,73.13049,4.081421,89.40125,14.14167,3.883333,1.416667,1
266779,-0.1401367,0.7802734,0.06884766,-13.24463,-44.73877,15.31982,73.29529,4.833984,78.36548,18.38333,-0.9,3.683333,1
267079,0.052734380000000004,1.286621,0.1694336,20.01953,-35.09521,-19.04297,76.56372,8.371582,73.01514,14.075,3.266667,0.09166667,1
267419,0.00390625,0.9077147999999999,0.024902340000000002,-23.62061,59.93652,1.220703,77.01416,6.009521,80.24414,15.64167,5.6,-2.9333329999999997,1
267619,-0.5654296999999999,1.308105,0.40429689999999996,-27.28271,94.90967,45.53223,74.31702,8.31665,94.13635,16.60833,4.383333,-1.841667,1
267839,-0.1342773,0.7753905999999999,0.2319336,-2.01416,40.16113,10.80322,75.25085,7.503662,115.2576,13.79167,-48.475,0.975,1
268079,-0.3125,0.8046875,0.06103516,0.06103516,-34.17969,24.96338,74.05884,4.724121,119.3005,15.55,3.466667,-0.225,1
268349,-0.01318359,1.336914,0.07080078000000001,33.08105,-42.17529,-18.9209,74.98718,0.368042,114.9774,11.39167,6.458333,-0.15833329999999998,1
268559,0.02587891,0.9868163999999999,0.2739258,-1.525879,64.45313,15.68604,79.68384,5.223999,126.9635,2.85,-49.79167,8.0,1
268839,-0.24072269999999998,0.9448242,0.07763672,6.591797,93.99414,14.03809,79.44214,4.498901,147.063,15.75833,0.7833333,-2.216667,1
269059,0.02197266,1.030762,-0.22558589999999998,-0.8544921999999999,124.2065,2.441406,79.29932,7.536621,164.2181,19.10833,8.575,-3.675,1
269269,-0.3232422,1.009277,0.19433589999999998,8.483887,57.86133,-4.699707,80.32104,5.377808,-163.2019,15.91667,2.8,-0.8250000000000001,1
269569,-0.2270508,0.8544921999999999,0.08251953000000001,-2.319336,-0.9155272999999999,14.52637,79.72229,4.943848,-157.879,18.03333,1.083333,-1.95,1
269789,0.7314453,1.352539,0.590332,0.6713867,13.91602,-64.5752,77.83813,1.763306,-164.9487,-32.5,-49.95833,-2.45,1
270089,-0.01416016,0.9145508,0.22851559999999999,-3.78418,77.88086,22.46094,79.21692,2.9882809999999997,-152.1881,16.45833,2.691667,-1.375,1
270499,0.04150391,1.20166,-0.12255859999999999,6.530762,97.0459,6.286621,77.10754,7.157593,-116.8121,19.175,9.075,-2.625,1
270819,-0.2871094,0.9252929999999999,0.2851563,3.90625,18.67676,-16.72363,76.46484,6.547852,-97.01477,15.75833,3.516667,-0.5333333,1
271099,-0.2280273,0.8603516,0.20214839999999998,-22.76611,-18.06641,13.61084,72.64709,6.602783,-95.4657,18.31667,0.55,2.475,1
271429,-0.375,0.8818359,0.46679689999999996,12.63428,-15.38086,-4.333496,76.745,9.40979,-95.42725,18.31667,2.975,0.1666667,1
271709,-0.048828130000000004,0.9287109,0.08007813,-5.432129,34.97314,10.68115,77.77771,8.085938,-87.94006,15.35833,0.5416667,-2.191667,1
272079,-0.1323242,0.8134766,0.37939449999999997,-27.52686,60.30273,-7.629395,77.96448,5.789795,-73.49854,-29.70833,-39.46667,-50.20833,1
272319,-0.2182617,0.8378905999999999,0.2197266,18.55469,-38.26904,-16.35742,77.63489,8.464966,-72.24609,14.825,2.658333,-0.725,1
272589,-0.1386719,0.9023437999999999,0.01416016,-7.69043,-43.27393,11.23047,75.25085,8.025513,-80.53528,16.38333,1.916667,0.025,1
272799,-0.6210937999999999,0.8334961,0.4482422,9.765625,-35.33936,-13.06152,74.95972,10.74463,-86.75354,-32.00834,-43.73333,-43.475,1
273039,-0.05566406,0.8325195,0.1948242,18.06641,-4.211426,11.96289,76.00891,9.689941,-92.05444,15.991670000000001,1.533333,0.8583333999999999,1
