Timestamp,AccX,AccY,AccZ,GyroX,GyroY,GyroZ,AngX,AngY,AngZ,MagX,MagY,MagZ,Tag
0,0.07568359,1.017578,0.04541016,-0.3662109,-1.342773,-1.220703,90.17578,-4.328613,137.9059,17.3,0.8333332999999999,0.0,1
470,0.06933594,1.016113,0.05029297,-0.1831055,0.5493163999999999,0.3662109,90.07141,-4.119873,137.8564,17.26667,0.8666667,0.0,1
730,0.07177734,1.016602,0.04736328,0.3051758,-0.12207029999999999,0.0,90.0824,-4.141846,137.9938,17.31667,0.875,0.0,1
950,0.06884766,1.016602,0.05322266,-0.12207029999999999,-0.12207029999999999,0.12207029999999999,90.0824,-4.125366,137.9663,17.31667,0.8916666,0.03333333,1
1240,0.06884766,1.01709,0.05175781,0.0,-0.06103516,0.06103516,90.09888,-4.141846,137.9498,17.33333,0.8416665999999999,0.0,1
1450,0.06884766,1.015137,0.04931641,0.0,0.24414059999999999,-0.06103516,90.09888,-4.141846,138.0048,50.93333,-96.15833,58.21667,1
1740,0.0703125,1.016113,0.05029297,0.0,-0.1831055,0.0,90.10437,-4.130859,138.0103,17.33333,0.8166667,0.01666667,1
1970,0.07080078000000001,1.015137,0.05078125,0.7324219,0.12207029999999999,0.0,90.18127,-4.11438,138.0762,50.79167,-96.19167,58.4,1
2270,0.07080078000000001,1.014648,0.04833984,0.42724609999999996,0.0,0.0,90.29663,-4.103394,138.0597,50.84167,-96.125,58.36666,1
2570,0.07177734,1.015625,0.04394531,0.0,0.0,0.0,90.35706,-4.092407,138.0212,50.83333,-96.225,58.45833,1
2870,0.0703125,1.013672,0.04785156,0.1831055,-0.3051758,0.0,90.38452,-4.086914,137.9718,17.28333,0.8166667,0.025,1
3180,0.07128906,1.014648,0.04736328,0.0,0.12207029999999999,0.0,90.39551,-4.086914,137.9718,50.85833,-96.33334,58.45833,1
3480,0.07128906,1.014648,0.04345703,0.7324219,0.7324219,-0.5493163999999999,90.41748,-4.01001,138.0542,17.36667,0.75,0.06666667,1
3780,0.06445313,1.01416,0.04541016,0.793457,-0.12207029999999999,-0.5493163999999999,90.52734,-3.7683109999999997,137.9663,51.16667,-95.825,58.63334,1
4080,0.06298828000000001,1.024414,0.03808594,0.12207029999999999,-0.3662109,0.0,90.52185,-3.696899,138.0377,17.35,0.8083332999999999,-0.03333333,1
4391,0.06298828000000001,1.015137,0.04248047,0.06103516,0.0,0.0,90.4834,-3.66394,138.0103,17.375,0.775,-0.008333334000000001,1
4660,0.06298828000000001,1.015625,0.04785156,-0.6713867,0.12207029999999999,0.3051758,90.19226,-3.6804200000000002,138.0487,51.16667,-96.06667,58.21667,1
4990,0.06542969,1.012207,0.05371094,-0.1831055,0.3051758,0.1831055,90.0769,-3.751831,138.0597,51.05,-95.99167,58.14167,1
5320,0.06347656,1.014648,0.04931641,0.0,-0.12207029999999999,0.0,90.11536,-3.751831,138.0597,17.31667,0.8833333,0.0,1
5560,0.06591797,1.013184,0.04931641,0.12207029999999999,0.1831055,0.0,90.12085,-3.746338,138.0487,17.34167,0.8666667,0.01666667,1
5770,0.06494141,1.014648,0.05175781,0.24414059999999999,0.0,0.3662109,90.13733,-3.773804,138.0377,17.30833,0.8916666,0.04166667,1
5990,0.06738281,1.015625,0.046875,0.3051758,0.1831055,0.3051758,90.26917,-3.867188,138.0048,50.98333,-96.14167,58.40833,1
6230,0.06884766,1.01416,0.04736328,0.24414059999999999,-0.12207029999999999,0.06103516,90.30212,-3.883667,138.0048,17.325,0.7833333,0.025,1
6470,0.06689453000000001,1.016602,0.048828130000000004,0.24414059999999999,0.3051758,0.24414059999999999,90.30762,-3.911133,137.9828,50.85833,-96.11667,58.36666,1
6730,0.06738281,1.012695,0.04736328,0.3662109,0.1831055,0.0,90.3241,-3.90564,137.9718,17.325,0.8,0.04166667,1
7000,0.07128906,1.016113,0.044921880000000004,0.6103516,0.0,0.3051758,90.41748,-3.971558,137.9883,50.90833,-96.13333,58.425,1
8350,0.07128906,1.01709,0.04296875,0.06103516,-0.4882813,0.0,90.5658,-4.053955,138.0212,17.36667,0.6916667,0.03333333,1
8620,0.06835938,1.017578,0.04052734,0.06103516,0.1831055,0.0,90.5603,-4.042969,137.9883,50.78333,-96.13333,58.60833,1
8880,0.07080078000000001,1.013672,0.04150391,-0.1831055,0.24414059999999999,0.0,90.51086,-4.037476,137.9828,50.89167,-96.13333,58.51667,1
9190,0.07177734,1.009766,0.03955078,0.4882813,-0.1831055,0.0,90.49438,-4.031982,137.9663,17.34167,0.75,0.08333334,1
9430,0.07226563,1.016113,0.0390625,0.0,-0.1831055,0.0,90.53284,-4.031982,138.0267,17.325,0.6916667,0.01666667,1
9700,0.07128906,1.01709,0.03955078,0.5493163999999999,0.4882813,0.0,90.54382,-4.031982,138.0267,50.85,-96.08334,58.86666,1
10020,0.07177734,1.01416,0.04248047,0.3051758,-0.4882813,0.1831055,90.58777,-4.031982,138.0652,50.79167,-96.14167,58.86666,1
10330,0.07080078000000001,1.012695,0.03759766,0.42724609999999996,0.24414059999999999,0.0,90.64819,-4.064941,138.0762,17.33333,0.6083333,0.04166667,1
10690,0.07128906,1.013672,0.03613281,0.1831055,0.3662109,0.0,90.6427,-4.059448,138.0597,50.76667,-96.15,58.575,1
10920,0.06982422,1.016113,0.03515625,0.5493163999999999,-0.12207029999999999,0.0,90.65369,-4.059448,138.0487,17.33333,0.5750000000000001,0.03333333,1
11200,0.07275391,1.015137,0.03564453,0.0,0.3051758,0.0,90.66467,-4.059448,138.0322,17.30833,0.5916667,0.008333334000000001,1
11410,0.06835938,1.016602,0.03466797,0.1831055,0.24414059999999999,0.0,90.65369,-4.059448,138.1311,17.325,0.5666667,0.01666667,1
11620,0.07373047,1.01709,0.030273440000000002,0.42724609999999996,0.7324219,0.0,90.65369,-4.064941,138.1531,50.78333,-96.10833,59.225,1
11860,0.07226563,1.01123,0.03271484,0.0,-0.5493163999999999,-0.1831055,90.62622,-4.075928,138.186,17.33333,0.5583332999999999,-0.008333334000000001,1
12110,0.07128906,1.016113,0.03564453,0.06103516,0.3662109,0.0,90.59326,-4.11438,138.3234,50.85,-96.11667,59.10833,1
12351,0.07568359,1.016113,0.03173828,0.3662109,-0.1831055,-0.4882813,90.65369,-4.020996,138.2025,17.34167,0.47500000000000003,0.025,1
12630,0.07226563,1.015137,0.03320313,0.1831055,-0.1831055,0.24414059999999999,90.64819,-4.031982,138.219,50.95833,-96.00833,58.95833,1
12920,0.07128906,1.015625,0.03857422,0.0,0.06103516,0.3051758,90.57678,-4.042969,138.1641,50.91667,-96.05,59.15833,1
13180,0.06542969,1.013672,0.03564453,-1.342773,0.8544921999999999,0.6103516,90.51086,-4.092407,138.2959,17.28333,0.6083333,0.0,1
13450,0.0703125,1.012695,0.03076172,0.3051758,0.0,0.9765625,90.45593,-4.202271,138.3453,50.61666,-96.29166,58.925,1
13751,0.08203125,1.01416,0.03515625,1.098633,-1.220703,0.1831055,90.45044,-4.614258,138.252,17.38333,0.4666667,-0.1,1
14050,0.0859375,1.01709,0.03320313,-1.586914,0.3051758,-0.12207029999999999,90.20874,-4.608765,138.1696,50.3,-96.48333,58.64167,1
14390,0.07910156,1.02002,0.028808590000000002,0.4882813,0.3662109,-1.159668,90.20325,-4.449463,138.4662,17.31667,0.6333333,-0.008333334000000001,1
14670,0.06787109,1.01416,0.04150391,-0.06103516,-0.7324219,-0.7324219,90.19226,-4.092407,138.4058,17.35,0.5416667,0.1416667,1
14970,0.06884766,1.015625,0.04052734,0.9765625,0.06103516,0.793457,90.41199,-4.081421,138.1805,17.31667,0.6666667,0.2166667,1
15310,0.07177734,1.018066,0.02929688,0.7324219,0.12207029999999999,0.12207029999999999,90.78552,-4.163818,138.1201,17.40833,0.4583333,-0.01666667,1
15540,0.07861328000000001,1.014648,0.03076172,-0.12207029999999999,-0.24414059999999999,-0.6103516,90.802,-4.262695,138.2465,50.85833,-96.13333,59.05,1
15800,0.07275391,1.022461,0.024902340000000002,-1.220703,-1.098633,0.3051758,90.68115,-4.251709,138.2465,17.29167,0.5083333,-0.075,1
16030,0.06689453000000001,1.019531,0.02929688,0.5493163999999999,0.9155272999999999,-0.4882813,90.58777,-4.207764,138.2629,17.18333,0.5916667,0.2083333,1
16240,0.06201172,1.020508,0.02587891,1.6479489999999999,2.075195,0.9765625,90.81299,-4.290161,139.0485,17.525,0.1833333,0.15,1
16450,0.07519531,1.012207,0.02441406,2.258301,-2.380371,-0.7324219,91.07117,-4.191284,138.4113,50.83333,-95.93333,59.76667,1
16700,0.06689453000000001,1.015137,0.020996090000000002,1.464844,2.624512,-0.42724609999999996,91.31836,-3.982544,138.3179,17.4,0.05,0.225,1
16960,0.060546880000000004,1.022949,-0.005371094000000001,1.708984,2.441406,-1.037598,91.70837,-3.718872,138.4058,51.34167,-95.58334,60.39167,1
17230,0.060546880000000004,1.016113,0.00390625,-3.967285,0.24414059999999999,1.098633,91.40625,-3.779297,138.4772,17.275,0.4666667,-0.4,1
17470,0.06982422,1.02002,0.022460940000000002,-2.990723,1.342773,1.037598,90.44495,-4.075928,138.6639,50.99166,-96.08334,59.48333,1
17770,0.07275391,1.023438,0.03222656,-1.525879,-0.793457,-0.793457,89.96704,-4.141846,138.8782,17.31667,0.7083332999999999,-0.03333333,1
18080,0.06787109,1.020996,0.03955078,-1.037598,0.0,0.3662109,89.75281,-4.042969,138.9056,50.9,-96.11667,59.05833,1
18370,0.06884766,1.018066,0.03857422,-0.9155272999999999,-0.9155272999999999,0.5493163999999999,89.58252,-4.213257,138.7848,50.91667,-96.18333,58.5,1
18660,0.08837891,1.01416,0.04736328,-1.525879,-0.6713867,0.9155272999999999,89.3573,-4.432983,138.1366,50.71667,-96.45,57.76667,1
18960,0.07763672,1.016602,0.052734380000000004,-1.098633,0.7324219,1.220703,89.17053,-4.680176,138.186,50.325,-96.525,57.575,1
19270,0.08642578000000001,1.011719,0.06591797,-1.586914,0.1831055,-0.6103516,89.10461,-4.702148,138.0542,50.35,-96.70834,57.6,1
19560,0.07958984,1.01709,0.05566406,0.6103516,0.6103516,0.24414059999999999,89.14856,-4.674683,138.2025,50.425,-96.575,57.675,1
19940,0.08007813,1.015137,0.05712891,0.12207029999999999,0.5493163999999999,0.0,89.35181,-4.630737,138.1531,17.3,0.9833333999999999,0.03333333,1
20140,0.08154297,1.009277,0.06542969,0.42724609999999996,-0.5493163999999999,0.24414059999999999,89.44519,-4.641724,138.197,17.25833,0.975,0.06666667,1
20350,0.07763672,1.01416,0.052734380000000004,0.9765625,1.586914,0.793457,89.63745,-4.685669,138.2849,17.375,0.8583333999999999,0.075,1
20570,0.08251953000000001,1.015625,0.048828130000000004,0.6103516,-0.6103516,-1.159668,89.8407,-4.603271,138.2245,50.55833,-96.44167,57.86666,1
20811,0.07226563,1.014648,0.05419922,0.7324219,0.4882813,-1.464844,89.9231,-4.295654,138.1586,17.325,0.8333332999999999,0.075,1
21090,0.06591797,1.01123,0.04638672,1.342773,-0.1831055,-0.4882813,90.18677,-3.9935300000000002,138.3014,51.025,-96.16666,58.09167,1
21390,0.06542969,1.012207,0.04589844,-0.3662109,0.3051758,0.0,90.33508,-3.88916,138.219,17.28333,0.8583333999999999,-0.008333334000000001,1
21700,0.06689453000000001,1.014648,0.04638672,0.24414059999999999,0.12207029999999999,0.12207029999999999,90.3241,-3.900146,138.2629,51.275,-96.08334,58.2,1
22000,0.06542969,1.017578,0.04150391,0.1831055,0.3051758,0.0,90.39001,-3.88916,138.252,17.33333,0.6833332999999999,0.0,1
22310,0.06152344,1.01416,0.04589844,-0.4882813,0.1831055,-0.12207029999999999,90.3241,-3.7683109999999997,138.2025,51.325,-96.04166,58.31667,1
22600,0.06445313,1.015625,0.044921880000000004,0.6713867,0.24414059999999999,0.12207029999999999,90.3241,-3.7683109999999997,138.2684,51.39167,-95.95834,58.3,1
22870,0.06494141,1.016602,0.044921880000000004,0.24414059999999999,0.3662109,0.3051758,90.36255,-3.7683109999999997,138.2849,17.34167,0.7416667,0.1,1
23120,0.06738281,1.015625,0.04296875,0.4882813,-0.12207029999999999,0.4882813,90.41748,-3.900146,138.3179,51.15833,-96.025,58.31667,1
23430,0.06298828000000001,1.014648,0.04003906,0.1831055,-0.12207029999999999,0.12207029999999999,90.43396,-3.949585,138.3289,17.34167,0.7333333,0.04166667,1
23730,0.06933594,1.01416,0.04394531,0.793457,0.06103516,0.12207029999999999,90.50537,-3.9990229999999998,138.3398,17.325,0.725,0.15,1
24040,0.06787109,1.015137,0.03710938,0.6103516,-0.3051758,-0.12207029999999999,90.69763,-3.966064,138.2849,17.33333,0.6000000000000001,0.06666667,1
24400,0.06591797,1.01709,0.03662109,0.3662109,-0.24414059999999999,0.24414059999999999,90.75256,-3.916626,138.3069,51.15,-96.09167,58.38334,1
25650,0.06787109,1.01709,0.03417969,0.0,0.0,0.0,90.60974,-4.031982,138.4058,17.31667,0.6083333,0.025,1
25880,0.06689453000000001,1.012695,0.03662109,0.3662109,0.1831055,0.0,90.60974,-4.020996,138.4167,17.35,0.6083333,0.04166667,1
26110,0.06884766,1.017578,0.03515625,0.5493163999999999,-0.3662109,0.0,90.65369,-4.01001,138.4167,17.35,0.5333333,0.075,1
26320,0.06591797,1.015137,0.03271484,0.793457,-0.42724609999999996,0.0,90.78003,-3.9935300000000002,138.4497,51.16667,-95.98333,58.825,1
26560,0.06884766,1.015625,0.02978516,0.3051758,0.0,0.0,90.81848,-3.982544,138.4332,17.35833,0.47500000000000003,0.03333333,1
26810,0.06640625,1.014648,0.02929688,0.1831055,-0.06103516,0.0,90.8075,-3.977051,138.4552,17.33333,0.5083333,0.008333334000000001,1
27030,0.06835938,1.011719,0.03076172,0.0,0.0,0.0,90.74707,-3.960571,138.4497,17.325,0.5333333,0.03333333,1
27330,0.06787109,1.01416,0.03125,0.12207029999999999,-0.12207029999999999,0.0,90.7251,-3.955078,138.4552,51.10833,-96.0,58.95833,1
27630,0.06933594,1.015625,0.02978516,0.3662109,0.1831055,0.0,90.7196,-3.949585,138.4607,17.31667,0.525,0.05,1
27940,0.06835938,1.016113,0.02832031,0.24414059999999999,-0.1831055,-0.06103516,90.78003,-3.90564,138.4607,51.05833,-95.83334,59.09167,1
28230,0.06591797,1.01709,0.024902340000000002,0.1831055,0.1831055,-0.12207029999999999,90.84045,-3.850708,138.5211,51.21667,-96.00833,59.05,1
28500,0.06396484,1.016602,0.0234375,0.24414059999999999,0.0,0.06103516,90.82947,-3.839722,138.5156,17.35,0.4166667,0.025,1
28750,0.06542969,1.016602,0.02587891,-0.1831055,0.06103516,0.1831055,90.76904,-3.867188,138.5651,51.2,-96.0,59.175,1
29050,0.06982422,1.017578,0.02539063,0.0,-0.12207029999999999,0.0,90.69214,-3.938599,138.576,17.375,0.4333333,-0.025,1
29360,0.06982422,1.016113,0.02587891,0.3051758,0.3662109,0.12207029999999999,90.65369,-3.949585,138.5651,51.075,-96.08334,59.19167,1
29670,0.06835938,1.016113,0.02587891,0.5493163999999999,0.4882813,0.0,90.71411,-3.944092,138.5925,17.4,0.31666669999999997,0.075,1
30030,0.06835938,1.014648,0.02441406,0.3662109,0.1831055,0.0,90.77454,-3.927612,138.631,51.1,-95.94167,59.20833,1
30300,0.06738281,1.018555,0.017089840000000002,0.24414059999999999,0.0,0.0,90.83496,-3.922119,138.6475,17.4,0.2916667,0.09166667,1
30551,0.06689453000000001,1.016602,0.02001953,-0.06103516,0.24414059999999999,0.0,90.82397,-3.916626,138.6584,51.0,-95.925,59.45833,1
30790,0.06445313,1.01123,0.02685547,0.4882813,-0.6103516,0.0,90.77454,-3.911133,138.6749,17.28333,0.4666667,-0.008333334000000001,1
31030,0.07226563,1.015137,0.01904297,0.12207029999999999,0.42724609999999996,0.12207029999999999,90.78003,-3.955078,138.7628,17.38333,0.24166669999999998,0.0,1
31230,0.07128906,1.016113,0.017089840000000002,0.3051758,0.1831055,-0.42724609999999996,90.74158,-3.988037,138.8232,51.08333,-95.93333,59.50834,1
31490,0.06640625,1.011719,0.02001953,-0.6103516,-0.9765625,-0.42724609999999996,90.66467,-3.900146,138.7024,17.28333,0.48333329999999997,0.15,1
31760,0.06152344,1.017578,0.01806641,2.319336,-0.06103516,-0.1831055,90.82947,-3.812256,138.6749,17.425,0.06666667,0.15,1
31990,0.0703125,1.021973,0.008300781,-1.281738,-0.12207029999999999,0.12207029999999999,90.91187,-3.894653,138.7189,17.31667,0.4666667,-0.06666667,1
32250,0.08154297,1.01123,0.02392578,-0.5493163999999999,0.12207029999999999,0.0,90.63171,-3.933105,138.5431,51.06667,-95.925,59.38334,1
32560,0.06005859,1.01709,0.01660156,0.793457,-0.3051758,-0.06103516,90.62622,-3.933105,138.6035,17.28333,0.25,0.1083333,1
32800,0.06884766,1.01416,0.01464844,0.793457,0.793457,0.42724609999999996,90.82397,-3.955078,138.4717,17.3,0.2833333,0.1916667,1
33070,0.07128906,1.01709,0.011230470000000001,0.12207029999999999,0.6103516,0.1831055,90.97229,-4.01001,138.5651,51.15,-95.875,59.65,1
33340,0.07275391,1.01709,0.009765625,-0.3662109,0.7324219,0.4882813,90.93933,-4.031982,138.5925,17.36667,0.225,-0.05833333,1
33590,0.07958984,1.016602,0.01269531,-0.06103516,-0.8544921999999999,0.3051758,90.79102,-4.158325,138.5596,50.98333,-95.90833,59.69167,1
33900,0.07470703000000001,1.017578,0.009765625,0.1831055,1.159668,0.7324219,90.77454,-4.273682,138.5815,17.35,0.2166667,0.0,1
34240,0.08496094,1.012695,0.01220703,0.4882813,-1.525879,-0.42724609999999996,90.81848,-4.334106,138.4991,17.225,0.2666667,-0.008333334000000001,1
34550,0.07666016,1.014648,0.004394531,1.403809,0.12207029999999999,0.8544921999999999,91.02173,-4.421997,138.587,17.26667,0.1916667,0.275,1
34780,0.07519531,1.020508,-0.006347656,2.01416,1.037598,-0.42724609999999996,91.48865,-4.400024,138.5266,50.8,-95.875,60.50834,1
35030,0.08447266,1.02002,-0.01171875,-0.1831055,-1.464844,-0.4882813,91.6095,-4.3396,138.5486,17.28333,0.05833333,0.01666667,1
35260,0.07519531,1.016113,-0.008300781,0.3662109,-0.06103516,-0.1831055,91.51062,-4.295654,138.5486,17.35,-0.008333334000000001,0.1416667,1
35470,0.07519531,1.016113,-0.009277344,0.1831055,-0.3662109,0.24414059999999999,91.55457,-4.268188,138.5431,17.35,-0.06666667,-0.1166667,1
35700,0.07128906,1.019531,-0.008789063,-2.807617,0.9765625,0.24414059999999999,91.21399,-4.152832,138.6145,17.30833,0.1166667,-0.25,1
36000,0.08496094,1.017578,0.008789063,-2.075195,1.342773,0.9155272999999999,90.7196,-4.257202,138.7518,50.99166,-95.875,59.775,1
36270,0.07861328000000001,1.011719,0.02685547,-2.929688,-0.06103516,-0.6103516,89.82422,-4.163818,138.8068,51.11666,-95.975,59.33333,1
36580,0.06640625,1.014648,0.02929688,-1.525879,0.0,-0.6103516,89.31335,-4.070435,138.9221,17.3,0.6416666999999999,-0.2,1
36820,0.06445313,1.009277,0.04296875,1.220703,-1.098633,0.24414059999999999,89.18701,-3.988037,138.8782,51.11666,-96.025,58.61666,1
37090,0.07177734,1.01416,0.03759766,-0.4882813,-0.3051758,-0.3051758,89.26941,-4.185791,138.9935,50.93333,-95.95834,58.825,1
37390,0.06591797,1.008789,0.04443359,1.098633,-0.24414059999999999,1.464844,89.31335,-4.262695,139.043,17.36667,0.3416667,0.17500000000000002,1
37640,0.08105469,1.02002,0.01806641,3.051758,-2.929688,-1.159668,90.04395,-4.257202,138.5431,17.36667,0.36666669999999996,0.2833333,1
37920,0.07470703000000001,1.008301,0.02832031,-3.234863,1.89209,0.6713867,90.36804,-4.125366,138.5431,17.30833,0.4333333,-0.31666669999999997,1
38260,0.08203125,1.018066,0.03759766,-2.563477,3.723145,0.3051758,89.52759,-4.229736,138.7903,17.3,0.675,-0.275,1
38530,0.07763672,1.011719,0.046875,0.0,0.5493163999999999,0.42724609999999996,89.09912,-4.476929,139.4385,17.34167,0.7000000000000001,0.0,1
38850,0.07958984,1.008789,0.044921880000000004,0.7324219,-0.06103516,0.06103516,89.16504,-4.608765,139.3231,17.26667,0.75,-0.04166667,1
39170,0.07666016,1.013672,0.04589844,0.5493163999999999,-0.3051758,-0.3662109,89.24744,-4.42749,139.1693,17.26667,0.75,0.1666667,1
39400,0.08251953000000001,1.011719,0.048828130000000004,0.793457,-1.464844,-0.42724609999999996,89.45068,-4.438477,139.1034,17.33333,0.6166667,0.15833329999999998,1
39610,0.06933594,1.011719,0.04394531,0.0,0.3051758,0.06103516,89.62097,-4.372559,139.0704,17.325,0.7000000000000001,0.1416667,1
39830,0.07373047,1.015137,0.03808594,1.464844,-0.06103516,0.24414059999999999,89.81873,-4.438477,139.0265,50.78333,-96.10833,58.60833,1
40060,0.078125,1.012695,0.03564453,-0.1831055,1.7700200000000001,0.3051758,89.93958,-4.449463,139.0869,17.3,0.6666667,-0.1083333,1
40310,0.08691406,1.009766,0.03417969,0.42724609999999996,-0.24414059999999999,0.12207029999999999,89.9176,-4.471436,139.1034,50.79167,-96.3,58.61666,1
40570,0.08056641,1.019531,0.03369141,0.6103516,-1.281738,-0.793457,89.90662,-4.42749,139.0814,17.35,0.6333333,0.09166667,1
40840,0.07714844,1.019531,0.02587891,0.3662109,0.24414059999999999,0.3051758,90.10437,-4.411011,139.1858,50.70833,-96.18333,58.80833,1
41130,0.07714844,1.007813,0.0390625,0.06103516,-1.89209,-0.42724609999999996,90.14282,-4.465942,139.1858,17.375,0.525,0.125,1
42430,0.0703125,1.016113,0.030273440000000002,1.6479489999999999,-0.06103516,0.42724609999999996,90.42297,-4.163818,139.0265,17.35833,0.36666669999999996,0.3416667,1
42670,0.07275391,1.012207,0.03222656,-3.112793,0.0,-0.06103516,90.57678,-4.251709,138.9825,17.4,0.3916667,-0.31666669999999997,1
42940,0.07421875,1.015137,0.04003906,-0.3051758,-0.7324219,-0.42724609999999996,90.03845,-4.2462159999999995,139.0649,50.94167,-96.16666,58.48333,1
43210,0.06933594,1.013184,0.04638672,-0.12207029999999999,1.6479489999999999,0.3051758,90.04944,-4.229736,139.1089,17.425,0.325,-0.01666667,1
43490,0.08056641,1.01709,0.03417969,0.9155272999999999,-1.037598,0.0,90.07141,-4.2462159999999995,139.1089,17.35,0.5833332999999999,0.2916667,1
43770,0.07275391,1.020996,0.01757813,-1.220703,1.8310549999999999,0.6713867,90.30212,-4.301147,139.2188,17.275,0.6583333,-0.1333333,1
44100,0.06884766,1.016602,0.04052734,0.4882813,1.953125,0.793457,90.1593,-4.361572,139.3066,17.25,0.6583333,0.225,1
44410,0.07128906,1.019531,0.02539063,-0.06103516,-0.06103516,-0.4882813,90.52734,-4.361572,139.4824,17.375,0.40833329999999995,-0.125,1
44640,0.07324219,1.012207,0.03466797,-1.281738,-1.953125,-0.7324219,90.3186,-4.317627,139.4495,17.19167,0.6083333,-0.025,1
44860,0.06787109,1.013184,0.0390625,-0.6103516,0.8544921999999999,0.42724609999999996,90.0769,-4.185791,139.4879,50.90833,-96.20834,58.525,1
45120,0.07128906,1.016602,0.03564453,-0.4882813,-0.793457,0.42724609999999996,90.00549,-4.2462159999999995,139.411,17.21667,0.7000000000000001,-0.008333334000000001,1
45341,0.07714844,1.018066,0.03662109,1.098633,-0.6103516,0.8544921999999999,90.04944,-4.334106,139.3451,50.94167,-96.26667,58.40833,1
45580,0.07666016,1.018066,0.03173828,0.3051758,-0.1831055,-0.12207029999999999,90.08789,-4.400024,139.3341,17.21667,0.6833332999999999,0.025,1
45850,0.05371094,1.01416,0.048828130000000004,-0.3051758,-0.8544921999999999,0.06103516,90.15381000000001,-4.421997,139.3726,17.275,0.48333329999999997,-0.06666667,1
46080,0.06933594,1.018066,0.04150391,0.0,1.037598,0.5493163999999999,90.0,-4.581299,139.7076,50.625,-96.39167,58.575,1
46340,0.08251953000000001,0.996582,0.04199219,2.075195,0.42724609999999996,-0.5493163999999999,89.95605,-4.592285,140.0098,17.16667,0.7666666999999999,0.1833333,1
46571,0.08349609,1.012695,0.04150391,1.037598,-2.624512,-0.3662109,90.15381000000001,-4.400024,139.5758,50.78333,-96.21667,58.53333,1
46840,0.07861328000000001,1.017578,0.03564453,1.342773,0.4882813,0.9155272999999999,90.35156,-4.504395,139.5538,17.33333,0.5333333,0.1333333,1
47080,0.06982422,1.011719,0.02441406,1.220703,-0.3051758,-0.24414059999999999,90.73608,-4.691162,139.1913,50.65,-96.275,59.09167,1
47380,0.07958984,1.015625,0.01757813,-2.075195,0.7324219,-0.4882813,90.89539,-4.487915,139.3781,17.25,0.6000000000000001,-0.25,1
47710,0.07226563,1.014648,0.03271484,-0.7324219,1.708984,-0.1831055,90.49438,-4.185791,139.8724,17.125,0.3916667,-0.15833329999999998,1
47980,0.0703125,1.010742,0.041015630000000004,0.12207029999999999,-1.403809,-0.42724609999999996,90.22522,-4.147339,140.2405,50.91667,-96.10833,59.13334,1
48270,0.07128906,1.014648,0.04394531,0.06103516,-0.9155272999999999,-0.24414059999999999,90.25818,-3.982544,140.0867,51.19167,-96.08334,58.93333,1
48570,0.07519531,1.014648,0.03759766,0.9765625,-0.4882813,0.5493163999999999,90.3241,-3.966064,140.0592,51.125,-96.03333,58.81667,1
48910,0.05517578,1.012695,0.044921880000000004,-0.5493163999999999,1.464844,1.159668,90.07141,-3.955078,140.3119,51.1,-96.15833,58.65833,1
49130,0.07763672,1.013184,0.03515625,-0.9765625,-1.464844,0.0,89.90112,-4.037476,140.0427,17.2,0.5,-0.1083333,1
49360,0.07617188,1.003418,0.06835938,-2.380371,0.6713867,-0.42724609999999996,89.53308,-4.015503,139.9713,17.38333,0.9666665999999999,-0.3083333,1
49580,0.06884766,1.010254,0.06640625,-0.9155272999999999,0.0,0.06103516,89.1156,-3.977051,139.9438,51.20833,-96.29166,57.7,1
49810,0.06347656,1.017578,0.05957031,0.3662109,0.0,0.06103516,89.13757,-3.966064,139.9658,17.225,1.075,0.025,1
50100,0.0625,1.014648,0.06005859,0.793457,0.06103516,0.0,89.32434,-3.949585,139.9823,51.26667,-96.20834,57.58333,1
50370,0.06835938,1.01709,0.056640630000000004,0.3051758,0.12207029999999999,0.3051758,89.47266,-3.982544,140.0482,51.1,-96.29166,57.9,1
50670,0.07177734,1.013184,0.05761719,0.6103516,0.793457,0.42724609999999996,89.599,-4.048462,140.0812,17.33333,0.8333332999999999,0.1083333,1
50920,0.07080078000000001,1.017578,0.04394531,0.42724609999999996,0.5493163999999999,0.0,89.8407,-4.108887,140.202,50.98333,-96.36667,58.04167,1
51180,0.06982422,1.012207,0.05761719,0.24414059999999999,-0.24414059999999999,-0.12207029999999999,89.84619,-4.037476,140.191,51.03333,-96.20834,57.95833,1
51490,0.06689453000000001,1.016113,0.05126953,-0.3051758,0.1831055,0.0,89.89563,-4.01001,140.2075,17.23333,0.9666665999999999,0.008333334000000001,1
51740,0.06933594,1.014648,0.05419922,0.7324219,0.24414059999999999,0.0,89.95605,-4.020996,140.2185,51.11666,-96.16666,58.225,1
52000,0.06787109,1.01709,0.04589844,-0.24414059999999999,0.793457,0.0,90.04944,-4.01001,140.224,51.1,-96.275,58.13334,1
52301,0.06982422,1.015625,0.04833984,0.24414059999999999,0.24414059999999999,0.0,90.10437,-4.004517,140.2515,17.25833,0.875,0.0,1
52570,0.06884766,1.017578,0.04296875,-0.1831055,-0.6713867,-0.3051758,90.13733,-3.9935300000000002,140.3668,17.35,0.9083334,0.01666667,1
52840,0.06347656,1.013672,0.04833984,0.5493163999999999,0.4882813,-0.3662109,90.23621,-3.856201,140.3613,17.29167,0.8,0.05,1
53210,0.06201172,1.016113,0.04052734,-1.037598,-0.3051758,-0.1831055,90.16479,-3.790283,140.5316,51.20833,-96.05,58.375,1
53470,0.06152344,1.013184,0.05615234,-0.4882813,-0.3662109,0.12207029999999999,90.03296,-3.7683109999999997,140.5206,17.35833,0.8666667,-0.025,1
53710,0.06689453000000001,1.015137,0.05419922,-0.12207029999999999,0.3662109,0.3662109,89.97253,-3.790283,140.5096,17.33333,0.975,-0.03333333,1
53930,0.06445313,1.01416,0.05419922,-0.24414059999999999,0.06103516,0.3662109,89.9231,-3.872681,140.4547,51.13334,-96.21667,58.11666,1
54170,0.06689453000000001,1.019043,0.05224609,-0.1831055,0.0,0.0,89.9231,-3.911133,140.4712,17.29167,0.9,-0.17500000000000002,1
54400,0.06835938,1.012207,0.07226563,-1.281738,0.9155272999999999,0.0,89.74731,-3.922119,140.4932,17.25,1.041667,-0.1166667,1
54630,0.06494141,1.015137,0.06152344,0.6103516,-0.4882813,-0.06103516,89.67041,-3.872681,140.592,17.30833,1.075,0.008333334000000001,1
54940,0.06591797,1.015625,0.05908203,-0.1831055,0.0,0.06103516,89.78027,-3.856201,140.5426,51.175,-96.2,57.83333,1
55230,0.06787109,1.014648,0.06494141,0.7324219,0.3051758,0.0,89.84619,-3.850708,140.5096,17.41667,0.9166667,0.03333333,1
55540,0.06933594,1.015625,0.05810547,0.1831055,0.4882813,0.0,89.89014,-3.839722,140.5206,51.10833,-96.24167,57.66667,1
55840,0.06445313,1.013184,0.05712891,0.24414059999999999,-0.42724609999999996,0.0,89.96704,-3.834229,140.5646,17.25,1.058333,0.025,1
56180,0.07324219,1.022949,0.06103516,-0.3051758,0.1831055,0.24414059999999999,89.98901,-3.834229,140.5206,17.31667,1.283333,-0.05,1
56460,0.07128906,1.015137,0.06298828000000001,-0.5493163999999999,-0.24414059999999999,0.0,89.89014,-3.845215,140.5096,17.29167,1.033333,0.0,1
56780,0.06738281,1.013672,0.06445313,0.3051758,-0.1831055,0.06103516,89.89563,-3.834229,140.5591,17.30833,1.075,0.0,1
57060,0.06591797,1.012695,0.06542969,0.5493163999999999,-0.24414059999999999,-0.1831055,89.90662,-3.795776,140.4987,17.28333,1.2,0.04166667,1
57390,0.0625,1.017578,0.05419922,0.7324219,0.24414059999999999,0.0,90.19226,-3.746338,140.5371,17.38333,0.8333332999999999,0.075,1
57670,0.06201172,1.016602,0.0546875,0.12207029999999999,0.3662109,0.12207029999999999,90.29114,-3.762817,140.6195,17.33333,0.9916666999999999,0.008333334000000001,1
58040,0.06298828000000001,1.012207,0.06103516,0.0,0.06103516,-0.3662109,90.25269,-3.762817,140.658,51.25834,-96.00833,57.76667,1
58260,0.06201172,1.013672,0.05859375,0.0,-0.06103516,-0.3051758,90.23621,-3.6859129999999998,140.6195,17.28333,1.016667,0.05833333,1
59530,0.06103516,1.016113,0.05322266,0.24414059999999999,-0.06103516,0.0,90.4834,-3.735352,140.5316,17.33333,0.8916666,0.01666667,1
59730,0.06494141,1.012695,0.0546875,0.1831055,-0.12207029999999999,0.0,90.48889,-3.724365,140.5151,17.30833,0.8583333999999999,0.008333334000000001,1
59950,0.06152344,1.018066,0.04833984,-0.8544921999999999,0.06103516,0.0,90.43396,-3.724365,140.5426,17.35,0.9166667,-0.1333333,1
60170,0.06396484,1.012695,0.06005859,-0.24414059999999999,-0.42724609999999996,0.0,90.26367,-3.707886,140.5261,17.29167,0.9583332999999999,-0.05833333,1
60380,0.060546880000000004,1.016113,0.05761719,0.06103516,0.06103516,0.0,90.19775,-3.702393,140.5261,51.44167,-96.05,57.775,1
60630,0.06103516,1.013672,0.05908203,0.6713867,0.24414059999999999,0.0,90.23071,-3.691406,140.5371,17.33333,0.9666665999999999,0.125,1
60860,0.06298828000000001,1.019043,0.05371094,0.3051758,0.06103516,0.0,90.42847,-3.669434,140.5316,51.49166,-96.10833,57.875,1
61110,0.06005859,1.016113,0.05371094,-0.1831055,0.3051758,0.0,90.41748,-3.658447,140.5536,17.31667,0.9083334,-0.008333334000000001,1
61391,0.06201172,1.016602,0.05566406,0.5493163999999999,0.06103516,0.0,90.41199,-3.674927,140.5975,51.3,-96.2,57.825,1
61650,0.06298828000000001,1.015625,0.05322266,0.06103516,0.24414059999999999,0.0,90.48889,-3.652954,140.6195,51.41667,-96.14167,57.75,1
61960,0.06005859,1.018555,0.04541016,-1.953125,0.12207029999999999,-0.1831055,90.34607,-3.641968,140.5811,17.65,0.65,-0.625,1
62200,0.060546880000000004,1.07666,0.04052734,-26.06201,5.859375,-1.159668,87.5061,-3.482666,140.5371,51.59167,-96.34167,54.10833,1
62470,0.06787109,0.9951171999999999,0.32617189999999996,-65.36865,11.2915,-0.5493163999999999,73.71277,-2.735596,142.1027,51.86666,-95.43333,42.78333,1
62790,0.05810547,0.9194336,0.4916992,7.141113,-0.1831055,-2.868652,67.55493,-1.664429,141.7621,52.95833,-93.8,38.11666,1
63080,-0.01855469,0.8588867,0.3300781,38.69629,11.23047,0.793457,74.58618,-0.8843994,143.432,53.55,-94.725,45.75834,1
63430,-0.01220703,1.024902,0.1079102,27.9541,28.50342,1.220703,85.35828,-0.6097412,149.0295,16.1,0.65,2.1,1
63660,0.05371094,1.017578,-0.01806641,11.47461,29.1748,20.75195,88.65967,-3.955078,159.2853,46.89167,-95.925,67.80833,1
63910,0.1435547,1.20166,0.06835938,18.00537,70.12939,-14.28223,90.60425,-3.927612,170.0299,18.00833,1.8666669999999999,0.0,1
64180,0.07177734,0.9824219,0.02734375,5.7983400000000005,82.70264,18.18848,90.60425,-5.130615,-177.0392,17.38333,-0.4666667,0.1,1
64390,0.04199219,0.9741211,-0.0859375,4.150391,90.51514,8.850098,89.10461,-7.531128,-158.67,14.75833,-1.666667,-0.3416667,1
64610,0.1123047,1.018555,-0.12402339999999999,6.530762,10.19287,0.8544921999999999,88.70361,-6.37207,-140.9491,15.2,-93.55833,81.6,1
64850,0.03125,1.132813,0.09033203000000001,-6.591797,23.98682,5.493164,90.53284,-8.893433,-138.1915,16.63333,0.425,-0.85,1
65090,-0.048828130000000004,0.9565429999999999,-0.13134769999999998,-5.371094,7.141113,3.540039,88.30811,-4.993286,-134.8627,12.53333,-92.91666,80.69167,1
65340,0.2241211,1.552246,0.09277344,27.22168,32.2876,-29.54102,90.62073,-4.141846,-132.8467,19.18333,2.866667,0.47500000000000003,1
65621,0.03271484,0.8925780999999999,-0.01953125,-5.065918,5.310059,1.953125,91.14258,-3.548584,-131.9568,12.05833,-90.8,81.71667,1
65880,0.12060549999999999,1.401367,-0.05322266,3.112793,-7.568359,15.01465,91.77429,-2.136841,-128.941,11.575,-90.2,81.44167,1
66190,-0.04980469,0.984375,0.08837891,0.42724609999999996,8.178711,-12.93945,93.08716,-6.157837,-128.5675,14.55833,0.35000000000000003,-1.133333,1
66430,-0.06542969,0.8867187999999999,-0.11279299999999999,2.624512,-14.64844,12.93945,91.4447,-4.334106,-130.2209,10.65833,-89.375,80.68333,1
66690,0.06396484,1.010742,0.121582,-9.094238,2.01416,4.516602,93.3728,-1.082153,-128.2764,11.975,-89.35833,80.84167,1
67020,0.1333008,0.8413086,-0.09228516,4.516602,8.789063,-6.530762,92.23022,-2.845459,-127.8369,10.56667,-89.53333,79.69167,1
67360,0.09228516,1.082031,0.0703125,-8.422852,-4.455566,-3.356934,94.30664,-6.888428,-127.6941,15.43333,0.7666666999999999,-1.858333,1
67660,-0.048828130000000004,0.8544921999999999,-0.10644529999999999,7.202148,-7.751465,9.70459,91.98303,-4.108887,-131.1987,17.125,-4.908333,0.4583333,1
67990,0.0546875,1.032227,0.137207,-10.31494,-12.02393,-2.563477,93.81226,-1.279907,-130.567,13.88333,0.6083333,-0.04166667,1
68200,0.10498049999999999,0.8437500000000001,-0.07324219,-6.591797,7.995605,-4.821777,92.51587,-2.675171,-131.5009,15.26667,-2.308333,-0.5083333,1
68410,0.04541016,0.9619141,-0.18945309999999999,12.93945,-5.249023,2.075195,93.15857,-1.884155,-129.4739,19.45833,2.191667,3.4,1
68630,0.09521484000000001,1.114746,0.0859375,-6.04248,6.408691,1.281738,95.48767,-6.740112,-129.9573,15.49167,0.55,-2.566667,1
68840,-0.015625,0.7871094,-0.06494141,-0.24414059999999999,-12.3291,11.35254,91.52161,-4.356079,-131.0449,8.691667,-91.29166,79.1,1
69080,-0.2602539,1.288086,0.07958984,17.51709,12.69531,-16.60156,94.06494,-2.186279,-128.6279,16.66667,2.45,-1.891667,1
69340,0.08935547,0.8583984,-0.052734380000000004,-11.53564,11.35254,-1.159668,92.0874,-1.384277,-128.9905,13.50833,-1.558333,-0.9,1
69630,0.2246094,1.277344,0.1113281,32.53174,-6.469727,48.64502,95.51514,-3.977051,-129.7321,8.2,-89.9,81.49167,1
70070,0.05371094,0.8183594,-0.078125,3.90625,-27.22168,12.87842,92.27417,-3.619995,-132.8412,10.41667,-90.93333,80.96667,1
70330,-0.06103516,1.108887,0.1557617,-19.9585,-6.835938,-8.605957,95.42175,-0.24719239999999998,-130.2979,11.975,-90.46667,81.94167,1
70630,0.09082031,0.8110352,-0.02978516,-10.55908,6.103516,1.586914,93.15857,-2.1698,-130.7922,14.0,-1.966667,0.008333334000000001,1
70880,0.08789063,1.230957,0.1552734,36.68213,-2.929688,57.73926,95.37231,-3.3673100000000002,-130.2814,18.88333,2.558333,-0.9916666999999999,1
71140,-0.08837891,0.8164062999999999,-0.06005859,-9.58252,-19.59229,-3.967285,94.55383,-3.537598,-128.8257,9.308333,-89.56667,81.16666,1
71420,0.1157227,1.056641,-0.1621094,6.286621,18.12744,-10.62012,95.09216,-3.499146,-131.0449,21.09167,1.841667,3.291667,1
71710,0.09033203000000001,0.8315429999999999,0.009765625,-4.455566,-3.967285,19.83643,95.19653,-0.9887695,-129.0619,13.6,-1.25,-1.25,1
71980,-0.01416016,0.9794921999999999,-0.13525389999999998,8.056641,-11.59668,11.96289,95.25696,-1.148071,-127.5348,21.275,2.95,3.0,1
72340,-0.05566406,0.8266602,-0.09326172,-7.141113,-16.8457,-3.051758,93.66394,-3.570557,-127.326,8.241667,-90.05,78.9,1
72610,0.04638672,1.288086,-0.08251953000000001,-1.7700200000000001,1.220703,-11.35254,95.21301,-3.6804200000000002,-129.5233,21.39167,2.941667,1.55,1
72850,0.1035156,0.9458008,0.140625,-11.23047,-1.464844,4.089355,95.72388,0.1702881,-128.54,13.43333,0.6333333,-0.9,1
73070,0.09716797,0.9077147999999999,-0.1103516,6.408691,7.324219,-15.625,94.38354,-0.7690429999999999,-127.4634,10.675,-91.125,78.7,1
73310,0.1796875,1.171387,0.1381836,5.187988,16.17432,19.71436,97.05322,-4.746094,-128.5785,17.225,1.45,-1.133333,1
73540,0.008789063,0.8334961,-0.09619141,-10.55908,-24.04785,-0.12207029999999999,92.7356,-3.087158,-129.4025,9.158334,-91.3,78.175,1
73800,0.08056641,1.477051,0.03710938,25.26855,5.67627,-17.63916,94.21875,-2.702637,-130.545,21.21667,3.091667,0.4333333,1
74081,0.07373047,0.7890625,0.03417969,-5.554199,1.342773,2.502441,94.70764,-1.472168,-130.3418,10.5,-91.50833,79.14167,1
74370,-0.05908203,1.7783200000000001,0.1254883,29.96826,-9.094238,42.23633,96.9928,-2.087402,-126.7657,22.64167,1.441667,-1.15,1
74680,-0.03710938,0.8095703,-0.04931641,-15.07568,-7.080078,-4.089355,95.52063,-4.383545,-124.5081,6.333333,-90.36667,78.73333,1
74980,0.1640625,1.479004,0.1279297,24.59717,11.53564,-28.80859,97.31689,-2.686157,-126.6559,19.95833,1.483333,-3.533333,1
76270,-0.2841797,1.131836,0.1791992,16.78467,-2.13623,-11.53564,95.57556,-1.560059,-128.7488,17.69167,2.558333,-1.041667,1
76520,0.1015625,0.8300780999999999,-0.08349609,-6.164551,8.728026999999999,-4.760742,93.50464,-2.158813,-129.6222,16.25,-1.883333,-0.075,1
76770,0.3110352,1.103516,0.24462889999999998,9.094238,20.01953,34.11865,96.20178,-4.152832,-129.8145,8.808333,-88.925,80.18333,1
77060,-0.015625,0.8134766,0.05029297,-12.69531,4.333496,-19.65332,94.1748,-4.400024,-126.535,14.91667,-1.366667,-1.808333,1
77330,0.01660156,1.253906,0.04980469,2.990723,4.455566,-11.41357,92.98828,-3.669434,-128.985,19.85833,4.15,0.8666667,1
77610,0.04345703,0.8095703,0.03271484,-2.685547,-3.845215,12.81738,93.0542,-1.658936,-128.3917,15.2,-1.6,-0.49166669999999996,1
77981,0.22851559999999999,1.139648,0.20166019999999998,11.77979,19.65332,24.71924,95.4657,-4.520874,-127.8534,8.458333,-88.71667,78.69167,1
78240,0.01660156,0.8305663999999999,0.01464844,-15.31982,-2.13623,-17.45605,94.37805,-3.603516,-127.1997,14.775,-1.65,-1.433333,1
78490,0.024902340000000002,0.9921875,-0.07568359,3.601074,-5.004883,9.216309,92.83447,-3.268433,-129.7815,24.04167,2.4,1.791667,1
78700,0.1074219,0.9438477,0.09667969,3.967285,4.638672,10.31494,94.55383,-0.1318359,-128.9575,11.975,-89.925,78.28333,1
78940,0.07910156,0.8881836,-0.1367188,-4.394531,16.54053,-6.164551,93.09814,-1.697388,-128.3862,17.54167,-1.625,0.7916667,1
79190,0.1210938,1.293945,0.17041019999999998,2.01416,18.31055,25.6958,96.8335,-4.932861,-129.408,9.058333,-88.35,79.5,1
79430,-0.02001953,0.7832030999999999,0.011230470000000001,-14.64844,2.075195,-19.04297,93.47168,-3.444214,-127.381,14.675,-1.8666669999999999,-1.108333,1
79710,0.1889648,1.593262,0.168457,26.79443,40.46631,-27.771,93.49365,-1.889648,-126.8646,10.4,-90.59167,76.975,1
80000,0.09570313,0.8139647999999999,0.02392578,2.563477,0.7324219,3.234863,94.3396,-1.18103,-129.3201,11.90833,-90.41666,78.29166,1
80260,-0.06835938,1.122559,-0.08203125,0.9155272999999999,-10.74219,0.4882813,94.71863,-0.8294678,-127.0404,27.88333,2.583333,4.741667,1
80530,-0.09570313,0.9091796999999999,0.06005859,-6.164551,-0.06103516,-14.64844,95.31738,-3.894653,-127.6721,9.808333,-89.8,78.55,1
80790,0.22998049999999998,1.065918,-0.1030273,2.01416,10.00977,-11.47461,94.08691,-2.109375,-132.9401,12.68333,-90.65,78.75833,1
81100,-0.005371094000000001,1.075684,0.09814453000000001,-18.61572,-13.85498,-15.99121,95.33386,1.203003,-130.7318,13.29167,1.183333,-0.36666669999999996,1
81350,0.04003906,0.8710937999999999,-0.18164059999999999,9.94873,11.04736,-5.67627,93.81226,0.1483154,-131.0065,14.25833,-90.74167,79.14167,1
81630,0.08105469,1.066406,0.06103516,-0.6103516,7.080078,-9.58252,96.89941,-5.059204,-132.8412,13.325,0.5666667,-1.475,1
81960,0.03173828,0.9414062999999999,-0.1157227,0.6103516,-17.08984,11.41357,94.50439,-2.741089,-136.7194,20.525,-3.766667,0.2583333,1
82270,0.1176758,0.9550780999999999,0.09179688,1.342773,5.432129,9.521484,94.50439,-0.2801514,-134.0552,12.94167,1.25,-1.275,1
82490,0.1132813,0.8798828,-0.12451169999999999,-7.568359,28.38135,-5.493164,92.19727,-1.790771,-131.9843,17.125,-2.116667,2.016667,1
82720,0.07666016,1.458008,0.05810547,20.69092,-0.9155272999999999,17.15088,95.09766,-1.296387,-130.144,23.15,2.65,0.525,1
82930,-0.01269531,0.7812500000000001,-0.006347656,-1.342773,-12.75635,-9.887695,96.55884,-2.894897,-132.4347,13.48333,-87.925,80.50833,1
83160,0.07617188,1.133301,-0.1337891,7.263184,0.0,-7.93457,97.5531,-2.125854,-135.6042,26.95833,1.508333,4.466667,1
83431,0.06738281,0.8574219,-0.06347656,-9.82666,-8.056641,15.56396,98.3551,2.032471,-137.2961,14.20833,-1.108333,-2.366667,1
83730,-0.1518555,1.024414,-0.1171875,-0.8544921999999999,-10.74219,9.094238,96.5094,0.2252197,-136.3293,17.70833,-89.15833,80.13333,1
84030,-0.028808590000000002,0.8203125,-0.01757813,-13.97705,2.01416,-19.104,96.58081,-3.565063,-133.4949,13.975,-88.625,79.94167,1
84290,-0.00390625,1.034668,-0.03662109,-1.159668,-20.26367,7.507324,94.72412,-2.631226,-136.2524,26.81667,2.525,2.483333,1
84550,0.0546875,0.8564453,0.09082031,-6.652832,5.371094,11.47461,94.84497,0.8459473,-135.6097,17.35,-90.13333,78.45,1
84860,-0.020996090000000002,1.099121,-0.07519531,3.601074,1.464844,-4.455566,94.49341,-0.1318359,-133.9069,27.23333,2.325,3.041667,1
85160,-0.08691406,0.902832,0.07617188,-3.356934,2.624512,-9.887695,95.50964,-4.592285,-132.2919,13.275,-89.20834,78.49167,1
85450,0.16601559999999999,1.082031,-0.06835938,-2.197266,8.300781,-1.281738,93.5376,-2.301636,-138.208,16.66667,-90.84167,77.925,1
85720,0.04443359,1.249512,0.21777339999999998,-13.5498,-12.45117,-14.22119,94.30115,-0.8074950999999999,-137.1204,15.06667,1.425,0.8333332999999999,1
85980,0.08789063,0.8496094,-0.09375000000000001,-0.3662109,9.58252,-5.432129,92.67517,-2.570801,-135.0055,18.89167,-1.216667,0.3833333,1
86291,0.13134769999999998,1.20752,0.175293,-16.35742,17.02881,7.69043,95.1416,-5.932617,-133.8135,15.375,1.733333,-1.341667,1
86590,-0.04589844,0.8071288999999999,-0.06787109,9.887695,-7.263184,3.4790039999999998,91.70288,-2.37854,-132.8247,19.09167,-3.65,1.05,1
86930,-0.02001953,1.014648,0.159668,-20.26367,-8.789063,-11.47461,94.9823,0.18676759999999998,-132.5171,13.68333,1.358333,-0.8416665999999999,1
87160,0.07519531,0.8510742,-0.1308594,-2.197266,14.77051,-11.65771,91.61499,-1.494141,-131.5887,15.26667,-90.29166,78.4,1
87410,0.06005859,1.117676,0.1645508,20.81299,-13.00049,48.52295,93.73535,-2.565308,-132.5006,19.28333,2.4,-2.35,1
87640,-0.03515625,0.7885742,-0.022460940000000002,-5.67627,-12.93945,-3.173828,91.45569,-2.109375,-132.3248,15.16667,-90.35833,78.15833,1
87880,0.1103516,1.041016,-0.18994139999999998,6.530762,15.44189,-9.155273,92.13135,-2.136841,-133.72560000000001,21.425,4.408333,2.8,1
88150,0.04443359,1.081543,0.13525389999999998,-14.34326,-9.338379,-14.4043,93.40027,0.6811522999999999,-133.7476,14.31667,0.925,-0.09166667,1
88380,0.08935547,0.8383788999999999,-0.08544922,-4.760742,-8.728026999999999,-12.146,91.14258,-0.9558105,-135.4724,18.56667,-90.79166,78.74167,1
88650,0.06542969,1.098633,0.15478519999999998,-4.760742,-5.615234,10.25391,93.50464,-4.284668,-137.7576,16.95,-89.71667,80.05,1
88950,-0.05126953,0.8188477,-0.01806641,-9.521484,-23.55957,-2.075195,92.02148,-1.922607,-139.9054,14.38333,-1.566667,0.3916667,1
89211,0.0009765625,1.2885739999999999,0.15869139999999998,18.73779,9.94873,-29.05273,94.10339,0.1263428,-142.8607,17.575,2.5,-2.9333329999999997,1
89470,0.1235352,0.8457030999999999,-0.03417969,-9.338379,-15.625,-0.4882813,91.67542,0.8843994,-149.6338,27.10833,-90.76667,79.875,1
89740,-0.05371094,1.016113,-0.08886719,3.234863,-17.21191,-4.455566,92.45544,2.471924,-151.441,22.06667,4.816667,3.075,1
90010,-0.04199219,0.9379883,0.046875,-8.300781,-46.20361,-17.94434,93.33984,-0.3625488,-158.2855,14.15833,-0.24166669999999998,-1.816667,1
90300,0.21435549999999998,1.094727,-0.10693359999999999,0.7324219,-19.04297,-10.98633,92.85645,-0.07141113,-175.0232,26.00833,2.9333329999999997,2.516667,1
90631,0.08740234,0.8920897999999999,0.0625,-4.577637,-41.62598,17.76123,92.91138,4.125366,177.0776,14.01667,-0.3833333,-1.175,1
90910,-0.04394531,1.051758,-0.08691406,11.71875,-41.80908,-2.929688,92.12036,5.114136,166.4264,25.825,5.1,4.591667,1
91240,-0.004882813000000001,0.9458008,0.01855469,-8.605957,-62.80518,-16.29639,93.59253,3.6859129999999998,153.7866,14.03333,-0.7916667,-1.541667,1
91540,0.06445313,1.046387,-0.1533203,8.483887,-10.25391,-9.216309,92.99927,4.487915,137.3895,22.48333,2.741667,1.641667,1
91780,0.07958984,1.114746,0.02539063,-15.38086,-75.31738,-9.033203,92.83447,7.003784,128.4576,14.93333,0.9916666999999999,-1.5833329999999999,1
92001,0.12207029999999999,0.8496094,-0.1259766,-2.13623,-39.36768,-9.643555,87.36877,5.383301,108.0176,54.325,-91.425,37.3,1
93220,0.1967773,0.8867187999999999,-0.16699219999999998,2.01416,-35.88867,-5.187988,85.81421,3.015747,51.93787,32.6,-88.60833,18.24167,1
93450,0.21777339999999998,1.067383,0.20166019999999998,9.338379,-8.178711,20.08057,89.18152,-0.38452149999999996,46.13708,17.25833,2.691667,-0.24166669999999998,1
93670,0.01074219,0.8193359,0.04833984,-15.07568,-14.70947,-20.69092,88.29712,0.4998779,43.45093,14.08333,-1.841667,-0.6333333,1
93900,-0.11425779999999999,1.48291,0.10839839999999999,7.995605,-4.943848,-3.90625,88.16528,0.13732909999999998,39.08386,25.28333,-88.59167,18.89167,1
94171,0.09765625,0.9194336,0.121582,-0.3662109,-13.24463,11.53564,88.44543,2.125854,36.52405,13.54167,0.2666667,-0.5916667,1
94400,0.05078125,0.8662109,-0.09960938,-4.211426,-0.6103516,-4.333496,86.91833,0.1538086,34.4696,19.14167,-1.083333,0.24166669999999998,1
94630,0.1650391,1.212402,0.1918945,-0.1831055,37.17041,5.371094,91.25244,-3.482666,33.35999,19.2,-88.05,19.8,1
94890,-0.02539063,0.8085937999999999,-0.1137695,-4.760742,-13.06152,5.7983400000000005,88.62122,-2.043457,35.16724,20.49167,-87.10833,18.575,1
95200,0.01806641,1.273926,0.12744139999999998,26.18408,29.35791,-43.02979,91.49414,-0.3131104,35.09583,17.66667,2.558333,-2.591667,1
95450,0.1152344,0.8139647999999999,-0.03271484,-7.446289,0.6713867,-4.760742,89.78577,-1.065674,33.14026,20.44167,-87.275,18.96667,1
95710,0.20214839999999998,1.028809,0.17822269999999998,19.40918,1.403809,31.18896,92.51038,-2.318115,34.11255,20.025,-88.1,20.55,1
96030,-0.1054688,0.8056641,-0.04345703,-15.01465,-20.32471,-2.746582,90.54932,-2.015991,34.72229,19.90833,-87.09167,19.1,1
96330,-0.18212889999999998,1.033691,0.1499023,16.35742,2.258301,-27.22168,93.10364,-0.1593018,33.04688,18.125,1.8333329999999999,-1.308333,1
96700,0.07763672,0.8173828,-0.11279299999999999,-6.408691,3.662109,-5.249023,90.82397,-0.9228516,30.44861,15.4,-2.15,-0.008333334000000001,1
96890,0.2114258,1.192383,-0.1538086,7.629395,7.324219,5.065918,92.36206,-0.07141113,31.67908,20.24167,3.975,0.35833329999999997,1
97090,0.05761719,1.057617,0.09277344,0.8544921999999999,3.723145,-13.48877,93.05969,-5.339355,33.14026,12.84167,0.45,-1.616667,1
97300,0.005859375,0.8564453,-0.1196289,-10.80322,-11.71875,4.394531,90.23071,-2.6971439999999998,33.15674,17.36667,-0.7083332999999999,0.925,1
97510,-0.02392578,1.2783200000000001,0.17822269999999998,-0.8544921999999999,-8.422852,-7.385254,92.57629,-0.5932617,33.30505,21.31667,-87.3,19.44167,1
97750,0.1318359,0.746582,0.048828130000000004,-7.080078,3.173828,1.953125,90.35156,-1.571045,33.49731,14.1,-1.941667,0.6583333,1
98020,-0.07275391,1.138184,-0.07177734,5.7983400000000005,-0.4882813,-4.821777,91.08215,0.005493164,36.50208,24.975,3.625,3.25,1
98250,0.0,0.8696288999999999,0.08544922,-11.96289,-2.197266,-17.08984,92.64221,-3.911133,36.26587,21.69167,-87.675,20.00833,1
98510,0.01855469,0.7851562999999999,-0.052734380000000004,-6.04248,-26.61133,8.422852,89.14856,-2.878418,32.80518,18.35,-3.641667,0.8083332999999999,1
98730,-0.02783203,1.038086,0.128418,-16.41846,5.004883,-6.225586,91.41724,-0.4229736,32.51404,21.8,-87.14167,19.01667,1
99010,0.08398438,0.8120117,-0.09521484000000001,-5.126953,18.31055,0.5493163999999999,89.87366,-2.883911,34.3103,17.58333,-1.433333,1.7083329999999999,1
99250,0.0546875,1.384277,0.1757813,5.615234,38.57422,20.32471,94.72412,-6.091919,38.60046,22.1,-88.95834,21.19167,1
99560,-0.03564453,0.7851562999999999,-0.060546880000000004,-3.540039,-16.41846,3.90625,90.32959,-4.037476,43.00049,25.21667,-88.05,19.73333,1
99820,0.10693359999999999,1.404297,0.1396484,15.68604,38.39111,-38.57422,92.38953,-2.955322,44.30786,18.35833,2.891667,-2.691667,1
100070,0.11425779999999999,0.8256836,0.01074219,-3.051758,4.333496,1.708984,90.63171,-3.4002689999999998,43.2312,26.525,-87.9,19.45833,1
100380,0.33349609999999996,1.157715,-0.041015630000000004,17.39502,-2.807617,17.21191,91.2854,-4.32312,42.91809,17.825,4.025,-2.5,1
100690,-0.04931641,0.7690429999999999,-0.041015630000000004,-2.075195,7.751465,-6.591797,89.30786,-4.235229,48.2135,14.05,-2.025,1.525,1
101031,-0.46533199999999997,1.371094,0.15478519999999998,4.089355,-20.56885,7.385254,91.77429,-1.834717,51.32263,15.81667,3.541667,-2.55,1
101250,0.13476559999999999,0.8325195,-0.06787109,-1.342773,1.708984,0.42724609999999996,89.39026,-2.493896,48.19702,30.58333,-87.81667,18.95,1
101500,0.18164059999999999,1.168945,-0.1674805,17.27295,14.64844,1.037598,90.7251,-1.5271000000000001,49.55383,21.49167,4.7,0.9333332999999999,1
101740,-0.02734375,0.8173828,0.04541016,-13.24463,10.55908,-15.56396,90.54932,-4.542847,53.02002,31.44167,-88.73333,20.025,1
101990,-0.03613281,0.9233397999999999,-0.1074219,12.93945,-14.22119,12.45117,89.37927,-4.42749,51.15784,22.95,2.2,-2.108333,1
102270,0.06933594,0.921875,0.190918,-5.67627,-4.516602,2.197266,90.06592,-0.3900146,51.71814,33.175,-88.225,19.675,1
102560,0.03125,1.122559,-0.05078125,8.544922,-3.4790039999999998,-6.530762,89.61548,-1.5325929999999999,50.77332,32.63334,-88.3,19.025,1
102820,0.08349609,1.169434,0.15869139999999998,0.793457,27.28271,13.18359,92.66968,-5.234985,50.63599,15.09167,1.475,-0.5166666999999999,1
103090,-0.001464844,0.8408203,-0.10107419999999999,-4.394531,-9.277344,6.286621,89.37378,-3.010254,51.33911,31.5,-89.25833,19.91667,1
103350,0.08154297,1.084961,0.13134769999999998,-22.15576,-22.2168,-16.6626,92.39502,-0.4614258,50.47668,33.28333,-89.79166,21.19167,1
103660,0.1025391,0.8364258,-0.04150391,-5.92041,-6.774902,0.0,90.42297,-1.746826,49.46045,13.85833,-1.316667,0.1166667,1
103910,0.31054689999999996,1.057617,0.1044922,21.05713,5.004883,34.11865,93.22998,-3.427734,49.57031,31.15,-90.55833,22.14167,1
104170,-0.06738281,0.8891602,-0.07958984,-9.399414,-8.666992,2.868652,88.93982,-2.559814,53.59131,33.375,-88.65833,19.99167,1
104490,-0.022460940000000002,1.155273,0.22216799999999998,10.43701,-25.81787,-4.455566,91.90613,-0.4998779,53.02002,34.675,-88.85833,20.68333,1
104800,0.06396484,0.8608397999999999,-0.1289063,-0.5493163999999999,6.713867,-3.540039,89.70337,-0.7196045,49.5813,19.94167,-0.7166667,0.0,1
105130,-0.001953125,1.129883,0.1616211,-6.286621,25.63477,18.85986,93.78479,-4.454956,51.00403,15.275,1.483333,-1.283333,1
105430,-0.01367188,0.7734375,-0.046875,-1.89209,-15.38086,10.0708,89.57703,-2.6696779999999998,51.16333,19.08333,-2.758333,0.275,1
105770,0.002441406,1.026855,0.1230469,-14.52637,-7.568359,-19.22607,92.26318,0.4888916,50.74036,13.34167,0.75,-0.2166667,1
105980,0.1367188,0.8852538999999999,-0.17431639999999998,-0.3662109,4.882813,-10.74219,90.45044,-1.104126,51.48193,34.05,-89.21667,19.7,1
106210,0.2841797,1.225098,0.2436523,13.97705,6.408691,19.59229,92.60925,-3.257446,48.25745,18.15,2.416667,-0.8,1
106480,-0.008789063,0.8300780999999999,0.052734380000000004,-9.94873,7.385254,-16.11328,91.70837,-3.823242,48.76282,13.741670000000001,-1.366667,-1.475,1
106710,-0.2011719,1.292969,-0.08349609,-3.601074,12.51221,-1.342773,90.71411,-2.263184,49.83948,33.46667,-90.11667,19.81667,1
106970,-0.02978516,0.9746094,0.1323242,-12.45117,-0.7324219,0.06103516,91.73035,0.6427001999999999,50.21851,13.46667,0.5666667,-0.2583333,1
107200,0.011230470000000001,1.095703,-0.08691406,4.394531,-0.3662109,-2.441406,91.07666,-1.082153,50.69641,33.5,-90.16666,19.11667,1
107460,-0.06396484,1.1845700000000001,0.12402339999999999,-1.220703,9.94873,23.31543,93.79028,-5.372314,49.34509,15.88333,1.116667,-0.7166667,1
107710,0.03564453,0.8320312999999999,-0.08203125,-7.568359,-7.751465,4.333496,89.41223,-3.493652,48.30139,30.96667,-90.36667,17.95,1
108010,0.1928711,1.047363,0.16601559999999999,-10.92529,-26.00098,-20.62988,91.82922,-2.136841,50.18555,33.4,-90.675,18.925,1
108280,0.08544922,0.8120117,-0.017089840000000002,-6.286621,-11.1084,-1.8310549999999999,89.87366,-2.834473,48.22449,14.4,-2.391667,1.05,1
108530,0.3671875,1.353516,0.1879883,19.04297,15.19775,21.3623,92.97729,-4.284668,48.98254,31.34167,-91.86667,20.63333,1
109810,0.05371094,0.9873046999999999,0.09570313,-5.004883,4.02832,-11.84082,92.44446,-5.993042,53.08044,32.23333,-91.31667,20.975,1
110110,-0.02539063,0.8642578,-0.1235352,-12.51221,-28.13721,1.342773,89.42322,-3.7683109999999997,52.7124,19.8,-0.8250000000000001,-0.1,1
110371,-0.009277344,1.187988,0.21435549999999998,-2.746582,-25.75684,-15.25879,91.51062,-1.257935,52.06421,14.34167,2.05,-0.025,1
110640,0.08251953000000001,0.8481445,-0.11279299999999999,0.42724609999999996,18.61572,-4.943848,89.20898,-2.27417,51.427,19.49167,-1.925,0.7083332999999999,1
111010,-0.03466797,0.8764647999999999,0.09667969,-9.82666,11.65771,-23.37646,92.01599,-5.004272,54.72839,33.43333,-90.63333,20.35,1
111240,-0.004882813000000001,0.8417969,-0.08349609,0.8544921999999999,-17.21191,7.385254,90.03845,-3.180542,54.39331,19.775,-2.991667,0.49166669999999996,1
111520,-0.1806641,1.174805,0.09521484000000001,22.15576,5.554199,-22.76611,92.53235,-0.8514404,55.79407,16.525,2.191667,-2.191667,1
111731,0.1259766,0.8286133,-0.05224609,-11.16943,-0.06103516,0.3662109,90.10437,-1.389771,51.89392,34.76667,-89.34167,18.18333,1
111970,0.21337889999999998,1.108398,-0.2226563,10.25391,10.43701,1.281738,90.84045,-1.1920169999999999,52.74536,19.31667,3.508333,1.875,1
112210,0.07617188,1.054688,0.08203125,3.112793,1.586914,-6.591797,93.51563,-5.822754,53.04199,13.55,0.2583333,-2.3,1
112420,0.07519531,1.086426,-0.07080078000000001,2.441406,0.6713867,6.9580079999999995,90.92834,-3.80127,52.41577,33.39167,-89.99167,18.325,1
112680,-0.015136720000000001,1.118652,0.2182617,2.929688,-15.80811,-12.26807,92.55432,-1.290894,54.62952,15.79167,2.358333,-0.5,1
112940,0.09375000000000001,0.7861328,0.02978516,-8.300781,-16.90674,7.446289,90.62073,-2.059937,52.50366,15.21667,-1.516667,-0.9833333999999999,1
113180,0.04541016,1.464844,0.08203125,38.08594,-20.75195,31.12793,91.2085,-2.460938,51.90491,20.03333,2.875,-1.091667,1
113440,-0.03955078,0.7670897999999999,0.02441406,-6.103516,-7.8125,-13.79395,89.53857,-3.735352,53.04199,33.80833,-90.0,17.625,1
113740,0.1806641,1.056152,-0.1386719,2.075195,11.47461,-4.821777,89.62097,-3.724365,51.30615,19.11667,3.366667,3.216667,1
113980,0.07128906,0.8300780999999999,0.06884766,6.286621,-13.61084,21.3623,91.08215,-0.7470703,51.16882,13.9,-0.3916667,-1.891667,1
114240,0.1918945,1.102539,-0.22900389999999998,12.69531,7.324219,-1.159668,90.67017,-1.713867,51.56433,34.60833,-90.575,19.40833,1
114520,0.12451169999999999,1.036133,0.08349609,-1.953125,-1.953125,-9.155273,92.77954,-6.009521,51.69617,13.55833,0.425,-2.175,1
114780,0.03759766,1.155762,-0.03955078,7.568359,-4.089355,7.995605,91.12061,-3.806763,49.2627,24.025,0.925,2.725,1
115080,0.044921880000000004,0.9018554999999999,0.1601563,-6.835938,3.723145,10.25391,91.9281,-0.7635498,50.84473,13.55,-0.5750000000000001,-1.058333,1
115450,0.19775389999999998,1.503906,0.1230469,37.29248,-14.89258,27.28271,91.05469,-3.306885,48.10913,30.625,-89.325,18.71667,1
115710,-0.05175781,0.9174804999999999,0.07128906,-4.150391,14.16016,-15.25879,91.77979,-5.531616,50.97107,13.40833,-0.6083333,-0.925,1
115960,0.21289059999999999,1.066895,-0.1635742,8.361816,23.98682,-9.887695,90.57129,-3.790283,51.77856,32.65,-88.70834,18.50833,1
116200,0.008789063,1.010742,0.1992188,-22.33887,3.4790039999999998,-11.77979,90.70862,-0.4394531,53.48694,13.275,1.258333,-0.3916667,1
116440,0.05419922,0.8735352,-0.08251953000000001,-7.080078,8.666992,-2.807617,89.01672,-2.493896,53.72864,17.9,-0.36666669999999996,0.5333333,1
116660,0.1855469,0.9536133,0.2397461,-0.7324219,14.95361,22.15576,91.65894,-4.361572,52.59155,32.78333,-89.375,18.35833,1
116890,0.05712891,0.8588867,0.06005859,-9.58252,0.6713867,-21.11816,90.06592,-4.235229,51.58081,14.54167,-1.791667,-0.9833333999999999,1
117180,0.1879883,1.482422,0.11425779999999999,28.44238,24.29199,-18.12744,90.2417,-2.351074,51.87195,34.88334,-89.55,17.38333,1
117450,0.08056641,0.8076171999999999,0.01855469,-1.8310549999999999,-4.272461,6.225586,90.49438,-1.2854,51.558840000000004,34.61666,-89.71667,16.89167,1
117760,-0.1171875,1.180664,-0.05175781,-1.159668,-14.09912,8.911133,90.28564,-1.065674,52.34985,24.60833,3.825,5.091667,1
118000,-0.03417969,0.8789062999999999,0.04541016,-15.19775,9.643555,-20.81299,91.30188,-4.998779,53.14636,33.63334,-91.19167,17.71667,1
118270,-0.006347656,1.231445,-0.105957,6.286621,5.92041,-6.713867,89.51111,-2.6971439999999998,52.28943,34.60833,-90.93333,17.16667,1
118590,0.08398438,0.7578125,0.05078125,-5.004883,-5.371094,14.70947,89.63745,-1.038208,52.80029,35.74166,-90.34167,17.25,1
118890,-0.0625,1.53418,0.1733398,36.8042,-20.01953,33.93555,90.40649,-1.620483,51.91589,21.61667,4.025,-0.2166667,1
119230,-0.04541016,0.7695312999999999,-0.009277344,-15.31982,-20.99609,-9.82666,90.24719,-3.109131,52.46521,14.16667,-1.5,-0.03333333,1
119530,-0.0078125,1.180176,0.2792969,18.79883,19.83643,-28.93066,92.5708,-1.71936,52.12463,17.51667,2.733333,-2.508333,1
119870,0.08056641,0.8217772999999999,-0.05908203,-9.70459,6.774902,0.0,89.82971,-1.851196,52.57507,16.61667,-1.758333,1.291667,1
120060,0.1967773,1.069336,0.2529297,0.6713867,14.64844,25.75684,92.79053,-4.669189,53.13538,32.08333,-91.45834,22.00833,1
120310,-0.04248047,0.7880859,0.030273440000000002,-16.35742,5.371094,-21.54541,90.85693,-4.213257,54.12964,14.39167,-1.575,-1.716667,1
120580,0.07421875,1.110352,-0.05078125,-0.5493163999999999,-9.155273,3.967285,88.94531,-3.828735,51.6687,26.775,1.716667,1.9916669999999999,1
120800,0.001464844,1.134277,0.2436523,7.263184,-16.35742,-5.737305,90.4834,-1.6149900000000001,55.24475,15.375,2.466667,-0.04166667,1
121010,0.1015625,0.8569336,-0.06103516,-8.056641,6.347656,-5.249023,87.72583,-2.186279,53.23425,19.33333,-1.266667,0.975,1
121280,-0.152832,1.407715,0.2075195,43.5791,-12.146,50.10986,90.95032,-3.581543,52.04224,18.85,3.85,-2.416667,1
121510,-0.0703125,0.7714844,-0.02148438,-7.8125,-2.01416,-5.737305,89.10461,-2.515869,56.84875,13.94167,-1.416667,1.55,1
121810,-0.1835938,1.187988,0.1811523,16.23535,-2.624512,-8.178711,91.11511,-0.5603026999999999,58.44727,36.83333,-88.225,22.2,1
122140,0.1542969,0.8227538999999999,-0.07861328000000001,-17.02881,-4.272461,-5.554199,88.64868,-0.7910155999999999,53.65173,17.86667,-0.8666667,0.1833333,1
122450,0.09228516,1.120605,0.2675781,5.554199,21.91162,25.87891,91.47217,-3.823242,53.38257,16.3,2.441667,-0.1916667,1
122710,-0.005371094000000001,0.8491211,-0.08544922,-4.455566,-22.52197,-0.6103516,87.78076,-2.724609,51.47095,31.9,-86.925,18.21667,1
122980,0.2358398,1.589844,0.11083979999999999,31.67725,29.54102,-32.40967,89.81323,-2.054443,51.72913,21.475,3.925,-2.541667,1
123230,0.056640630000000004,0.8032227,-0.005371094000000001,-7.629395,-7.629395,2.075195,88.97278,-1.571045,51.63025,33.46667,-86.93333,18.075,1
123540,0.1044922,1.188965,0.159668,24.6582,3.662109,35.21729,91.3623,-3.317871,50.39978,18.79167,2.908333,-1.975,1
123880,-0.07226563,0.7915038999999999,-0.04980469,-8.972168,-2.624512,-5.92041,88.44543,-3.103638,54.63501,15.175,-1.641667,0.85,1
124150,-0.06591797,1.052246,0.2358398,15.50293,-7.995605,-13.91602,90.93933,-1.6149900000000001,55.83252,17.325,2.833333,-1.9000000000000001,1
124510,0.001953125,1.097656,-0.04248047,4.272461,-7.873535,-0.3662109,88.76404,-2.098389,54.79431,34.88334,-87.05833,16.875,1
124790,-0.011230470000000001,1.270508,0.2314453,5.249023,29.54102,29.54102,92.05994,-4.987793,55.19531,16.96667,1.375,-0.7416667,1
125020,-0.006347656,0.777832,0.04931641,-18.98193,3.967285,-17.7002,90.03296,-3.581543,57.40356,14.19167,-0.9333332999999999,-0.775,1
125230,0.3134766,1.5200200000000001,0.14306639999999998,29.47998,19.65332,-24.96338,89.26941,-2.889404,58.52966,37.68333,-88.90833,17.95,1
125480,0.041015630000000004,0.8881836,0.15478519999999998,-9.338379,-4.333496,3.4790039999999998,89.24744,0.09887695,56.99707,13.30833,0.2583333,-0.1,1
126711,0.06884766,0.9414062999999999,0.06689453000000001,1.708984,6.591797,13.42773,91.73584,0.5932617,56.90918,13.65833,-1.166667,-0.1333333,1
126930,0.015625,1.081055,-0.11474609999999999,9.033203,-6.408691,16.90674,92.96082,-0.7635498,57.12891,37.175,-91.575,20.60833,1
127200,0.05322266,1.040039,0.09960938,-11.65771,10.25391,17.8833,94.47144,-6.174316,58.04077,14.98333,0.9666665999999999,-1.941667,1
127430,-0.03759766,0.8134766,-0.05175781,-19.22607,-4.394531,-4.272461,90.82397,-4.191284,59.10645,14.44167,-1.4583329999999999,-1.008333,1
127660,-0.18994139999999998,1.164063,0.1157227,15.38086,32.89795,-1.525879,90.1593,-3.521118,66.14868,40.39167,-90.83334,20.81667,1
127950,0.06298828000000001,0.8393554999999999,-0.0004882813,-5.310059,20.1416,5.310059,89.21997,-3.872681,71.521,14.31667,-1.775,0.7916667,1
128260,0.3051758,1.229492,0.07080078000000001,22.27783,21.3623,24.84131,92.47742,-6.064453,76.04187,43.08333,-93.19167,26.475,1
128550,-0.04638672,0.8276367,-0.02001953,-7.995605,7.141113,-6.530762,89.11011,-4.295654,84.09485,14.425,-1.108333,0.5666667,1
128870,-0.1845703,1.146484,0.2089844,17.82227,5.7983400000000005,-8.544922,92.22473,-2.609253,87.30286,49.7,-91.84167,30.525,1
129180,0.109375,0.8242187999999999,-0.04541016,-2.075195,13.73291,2.319336,88.67065,-3.092651,86.75354,15.56667,-1.883333,1.416667,1
129510,0.3193359,1.171875,0.1733398,13.06152,14.64844,19.59229,93.03223,-5.50415,89.85168,18.25,2.0,-0.9833333999999999,1
129820,-0.060546880000000004,0.8505859,-0.04199219,-11.90186,0.24414059999999999,-5.187988,89.57703,-4.11438,94.16931,15.19167,-1.341667,0.775,1
130050,-0.07958984,1.212402,0.2124023,10.13184,0.24414059999999999,-10.00977,91.14807,-1.642456,96.68518,53.05,-91.44167,34.71667,1
130300,0.07519531,0.8188477,0.05957031,-3.78418,-10.13184,10.62012,89.28589,-1.082153,95.11414,14.56667,-1.191667,-0.5833332999999999,1
130540,-0.004882813000000001,1.015137,-0.08935547,10.49805,3.112793,1.586914,88.56628,-0.5767822,94.84497,27.55833,4.508333,3.458333,1
130740,-0.04003906,0.9492187999999999,0.12060549999999999,-9.155273,3.4790039999999998,-14.64844,91.74683,-5.696411,94.47693,49.475,-93.50833,34.75834,1
130980,0.005371094000000001,0.8686522999999999,-0.07324219,-12.02393,-20.38574,-0.9155272999999999,89.05518,-3.383789,92.36755,19.75833,-0.7666666999999999,0.3083333,1
131260,0.09082031,1.498047,0.060546880000000004,24.4751,23.98682,-9.82666,90.58228,-3.894653,93.33435,19.35,3.425,-0.24166669999999998,1
131490,0.056640630000000004,0.809082,0.008300781,-4.516602,-1.098633,1.6479489999999999,90.64819,-2.537842,95.82825,14.18333,-2.066667,0.2,1
131760,-0.1323242,1.547852,0.14306639999999998,38.20801,-21.85059,40.83252,92.78503,-2.9827879999999998,97.5531,51.60833,-92.96667,37.50834,1
132050,-0.07763672,0.9672852,0.05371094,-10.55908,2.746582,-15.44189,91.47217,-5.31189,100.0964,13.68333,0.0,-2.216667,1
132310,0.07470703000000001,1.166016,-0.01806641,1.342773,6.774902,-4.577637,88.37952,-2.702637,99.14612,23.5,3.7,2.783333,1
132580,0.1293945,0.8208008,0.11279299999999999,-5.615234,-11.77979,12.39014,89.34631,0.005493164,97.64648,53.65,-90.46667,33.875,1
132850,0.1030273,0.9013671999999999,-0.07470703000000001,4.211426,12.20703,-1.708984,87.55554,-1.142578,96.44897,17.95833,-2.391667,1.091667,1
133090,0.1259766,1.037109,0.14306639999999998,-2.990723,5.065918,7.995605,89.85718,-6.157837,98.45398,49.78333,-93.41666,35.21667,1
133390,0.04199219,0.9941405999999999,-0.04443359,6.469727,-24.90234,10.19287,87.61597,-4.53186,97.56409,50.275,-92.63333,33.50834,1
133680,0.03662109,0.9487304999999999,0.1674805,-6.408691,2.563477,-5.126953,89.60449,-1.005249,95.80627,52.40833,-91.34167,34.16667,1
133980,-0.030273440000000002,1.054688,-0.06787109,-0.3051758,-3.051758,0.42724609999999996,88.83545,-2.735596,97.58606,51.65833,-91.91666,34.575,1
134320,0.01220703,0.9536133,0.07958984,-2.075195,8.117676,-12.3291,91.74683,-6.108398,97.30591,13.16667,0.2833333,-1.141667,1
134560,-0.02929688,0.8696288999999999,-0.11474609999999999,1.220703,-2.075195,2.258301,89.64294,-4.367065,99.00879,19.05833,-1.691667,0.08333334,1
134770,0.3134766,1.4658200000000001,0.08007813,18.73779,15.07568,-36.01074,91.94458,-2.460938,99.52515,18.23333,2.666667,-2.55,1
134981,0.1123047,0.8334961,0.01171875,-14.22119,-6.469727,-0.12207029999999999,88.8739,-1.466675,97.17957,52.30833,-91.525,35.14167,1
135220,-0.01171875,1.072266,-0.1455078,8.117676,-2.502441,-1.220703,88.57727,-1.587524,97.80579,19.09167,3.091667,3.266667,1
135510,-0.002929688,0.8168945,0.08349609,-9.94873,2.563477,-28.80859,89.52209,-4.026489,99.01428,51.55,-92.44167,36.125,1
135780,-0.00390625,1.330078,0.006347656,0.8544921999999999,7.385254,-7.263184,88.94531,-2.296143,96.02051,52.01667,-91.80833,34.625,1
136090,0.04638672,0.9013671999999999,0.19726559999999999,-7.263184,8.117676,2.380371,88.97827,0.45593259999999997,95.84473,13.125,0.725,-0.8416665999999999,1
136340,-0.01220703,1.164063,-0.0034179690000000003,4.333496,-12.3291,1.464844,87.43469,-1.6149900000000001,95.96008,52.25,-91.21667,33.26667,1
136590,-0.04199219,0.9707030999999999,0.07324219,-3.723145,9.338379,-17.33398,90.86792,-5.454712,96.80054,50.375,-93.44167,36.51667,1
136900,-0.03222656,0.871582,-0.07373047,-4.211426,-19.89746,4.638672,88.34656,-2.724609,96.59729,19.73333,-1.183333,-0.5916667,1
137140,0.02050781,1.138184,0.1728516,-19.59229,-10.80322,-13.48877,90.40649,-0.2142334,97.42126,14.46667,2.358333,0.1083333,1
137410,0.1201172,0.8505859,-0.1054688,-3.540039,13.67188,-7.568359,87.51709,-1.571045,97.01477,53.56667,-91.175,34.29167,1
137720,0.04345703,1.086914,0.1728516,19.40918,4.394531,43.76221,90.58228,-3.619995,97.11365,19.04167,3.091667,-0.9916666999999999,1
137980,-0.05175781,0.7939453,-0.02294922,-6.04248,-8.178711,-5.67627,88.20374,-2.515869,98.80005,14.775,-0.03333333,0.6666667,1
138250,-0.08154297,1.103027,0.2641602,17.33398,0.8544921999999999,-13.67188,89.84619,-1.18103,99.09668,17.63333,2.491667,-1.158333,1
138760,0.2592773,1.213867,-0.09716797,7.080078,8.300781,1.037598,89.05518,-1.2854,96.38855,17.8,4.325,0.4,1
139000,0.0625,0.9921875,0.11669919999999999,-3.4790039999999998,4.699707,-5.187988,91.21399,-5.410767,98.10242,13.5,0.7166667,-1.8333329999999999,1
139210,0.03710938,1.104004,-0.06005859,2.380371,0.06103516,4.638672,88.98376,-2.938843,95.41077,52.325,-92.35833,34.50834,1
139460,-0.044921880000000004,0.9702147999999999,0.2524414,8.483887,-18.67676,-9.399414,90.85144,-0.5218505999999999,96.11389,16.98333,2.866667,-0.6083333,1
139720,0.08105469,0.7993163999999999,0.06298828000000001,-4.211426,-8.483887,16.29639,89.86267,-1.439209,94.11987,15.21667,-1.266667,-1.558333,1
139940,0.18945309999999999,1.4238279999999999,0.02832031,32.89795,0.6713867,9.155273,90.14282,-1.983032,94.63623,52.15,-92.675,34.78333,1
140190,-0.04541016,0.9721679999999999,0.08251953000000001,-8.178711,7.019043,-7.141113,91.09863,-5.674438,96.25122,14.39167,0.075,-1.3333329999999999,1
140440,0.08837891,1.119629,-0.02392578,1.89209,3.356934,2.258301,88.89038,-4.207764,94.15283,50.825,-92.78333,33.325,1
140701,0.002929688,1.1010739999999999,0.2358398,0.9765625,-13.06152,-15.80811,90.89539,-1.680908,95.33936,16.525,2.158333,0.01666667,1
140950,0.09472656,0.8955078,-0.08251953000000001,-6.9580079999999995,16.47949,-3.417969,88.16528,-2.521362,95.625,52.49166,-92.09167,34.10833,1
141250,0.125,1.141602,0.22216799999999998,1.159668,20.32471,20.1416,91.69739,-4.779053,96.9928,16.76667,1.758333,-0.6916667,1
141550,0.01464844,0.8876953,-0.11621089999999999,-6.164551,-20.50781,-0.3662109,88.82446,-2.521362,94.1748,51.63334,-92.84167,33.55833,1
141850,-0.05517578,1.043945,0.2573242,8.117676,-8.850098,-2.807617,91.1261,-1.032715,95.12512,53.375,-92.35833,35.31667,1
142140,0.1401367,0.8979492,-0.08398438,-0.8544921999999999,5.554199,2.929688,89.61548,-2.043457,94.20227,52.475,-92.53333,35.025,1
142430,0.1689453,1.197754,-0.1450195,17.02881,9.70459,7.629395,91.45569,-2.504883,96.9104,20.16667,4.108333,1.45,1
143670,-0.1259766,1.467773,0.08789063,30.76172,76.66016,29.90723,93.57056,-6.47644,154.2755,20.05,1.375,0.1083333,1
143990,-0.06298828000000001,0.8530272999999999,-0.0390625,-10.68115,65.12451,-4.333496,90.81299,-8.717651,174.4299,35.93333,-93.9,80.275,1
144310,0.0034179690000000003,1.536133,0.1381836,25.93994,67.81006000000001,-12.93945,90.65918,-9.667969,-168.0908,20.525,0.9833333999999999,0.9083334,1
144551,0.1333008,1.074707,0.06787109,2.441406,74.40186,11.04736,90.82397,-7.981567,-156.6925,14.66667,0.8333332999999999,-0.1166667,1
144760,-0.07568359,0.8999022999999999,-0.1264648,5.615234,96.86279,3.112793,87.79724,-9.656982,-139.6582,15.93333,-0.775,1.508333,1
144970,0.1303711,1.433105,0.07714844,16.90674,65.979,15.31982,92.005,-11.55762,-121.5143,-4.891667,-86.1,79.625,1
145200,-0.009277344,0.7709961,-0.02197266,-7.263184,83.43506000000001,-13.3667,87.30835,-9.030762,-106.1719,15.39167,-2.15,-0.9916666999999999,1
145460,0.2963867,1.5229489999999999,0.24072269999999998,32.10449,41.80908,-34.17969,88.15979,-6.59729,-92.87842,-12.55,-86.44167,63.61666,1
145701,0.044921880000000004,0.9697266,0.09863281,2.197266,24.84131,16.8457,88.78052,-4.3396,-88.76404,14.24167,1.058333,-0.15833329999999998,1
145980,0.008300781,1.037598,-0.048828130000000004,6.225586,8.422852,-7.385254,88.07739,-5.015259,-82.67761,-11.425,-84.84167,56.19167,1
146270,-0.1132813,0.9882812999999999,0.03222656,2.441406,10.19287,-14.09912,90.73059,-5.9545900000000005,-77.36572,-9.85,-83.28333,54.30833,1
146530,-0.05371094,0.8647461,-0.06542969,-8.300781,-13.97705,-1.89209,88.67615,-3.378296,-77.89307,18.9,-1.883333,0.48333329999999997,1
146800,0.06396484,1.203125,0.2084961,-13.06152,-26.79443,-17.51709,90.88989,-1.708374,-78.10181,-4.158333,-85.3,57.59167,1
147060,0.06201172,0.8461913999999999,-0.10839839999999999,-6.103516,11.53564,-9.70459,87.82471,-2.290649,-80.32104,-4.4,-85.20834,58.95833,1
147360,-0.08886719,1.306152,0.22167969999999998,23.55957,-12.51221,56.7627,90.33508,-3.521118,-81.06812,19.96667,2.491667,-1.441667,1
147620,-0.09179688,0.8193359,-0.03173828,-12.63428,-11.41357,-5.981445,89.75281,-3.570557,-77.55249,-7.875,-84.18333,60.675,1
147900,-0.03564453,1.214844,0.1831055,14.03809,-1.403809,-23.25439,91.3678,-1.686401,-79.72778,17.38333,2.741667,-0.6333333,1
148230,0.1015625,0.8359375,-0.03369141,-1.953125,1.098633,-2.075195,91.19751,-2.427979,-79.56299,15.23333,-2.458333,-1.033333,1
148530,0.1606445,1.092285,0.175293,18.98193,-0.3051758,45.47119,93.11462,-4.169312,-80.67261,18.14167,2.291667,-0.6166667,1
148760,-0.017089840000000002,0.8276367,0.0390625,-11.59668,7.019043,-20.38574,92.26868,-4.295654,-79.83215,14.10833,-1.05,-1.841667,1
148990,0.01806641,0.9506836,-0.06494141,8.300781,-1.6479489999999999,8.056641,90.33508,-3.66394,-80.80444,18.76667,-3.125,1.783333,1
149200,0.04736328,1.053223,0.1230469,-1.8310549999999999,10.00977,8.361816,92.09839,-0.2416992,-77.87659,-8.708333,-88.58334,57.78333,1
149430,0.0546875,0.887207,-0.09863281,-8.911133,4.882813,0.6103516,90.02197,-2.015991,-77.89307,17.55833,-1.733333,0.85,1
149680,0.1318359,1.454102,0.16699219999999998,5.92041,12.57324,12.69531,94.23523,-5.498657,-77.83264,-11.1,-86.21667,58.90833,1
149930,-0.05126953,0.7387695,0.03222656,-20.01953,-17.02881,-15.19775,91.63696,-3.213501,-77.27783,15.20833,-1.733333,-2.216667,1
150220,0.1879883,1.656738,0.1308594,24.4751,23.49854,-26.61133,91.09314,-2.537842,-79.57947,-8.075,-88.975,58.60833,1
150500,0.07226563,0.7983397999999999,0.020996090000000002,0.3662109,-15.68604,3.90625,91.30188,-1.604004,-82.44141,-7.7,-89.31667,60.78333,1
150750,-0.07714844,1.094238,-0.1171875,6.591797,-0.06103516,-2.685547,91.78528,-0.703125,-80.74402,25.66667,4.141667,2.558333,1
151030,-0.09619141,0.9418945,0.08496094,-1.159668,5.187988,-13.42773,92.13135,-4.361572,-78.1073,-10.48333,-88.15833,58.575,1
151301,0.09960938,1.066895,-0.08398438,7.995605,-2.502441,-2.807617,91.0437,-2.69165,-82.19971,-9.608334,-88.85,59.39167,1
151600,0.044921880000000004,1.203125,0.184082,-15.99121,-15.80811,-18.12744,93.32886,-0.38452149999999996,-80.89233,15.4,0.8250000000000001,0.45,1
151850,0.09082031,0.8461913999999999,-0.1176758,9.399414,16.8457,-5.615234,91.80176,-2.109375,-79.94202,-8.616667,-89.23333,59.0,1
152130,0.08496094,1.149414,0.1118164,-4.638672,-1.220703,10.25391,96.44897,-6.531372,-79.06311,15.0,0.8583333999999999,-2.516667,1
152470,0.001953125,0.8413086,-0.09375000000000001,2.380371,-15.80811,1.281738,92.53784,-2.081909,-81.01868,18.80833,-3.341667,0.7416667,1
152741,0.01318359,1.108887,0.12744139999999998,-12.75635,-11.41357,-17.45605,95.35583,0.7470703,-82.07886,15.4,0.975,-0.4583333,1
153110,0.1176758,0.8603516,-0.1293945,-4.089355,12.146,-7.995605,92.66418,-0.24719239999999998,-82.65015,18.325,-2.841667,0.625,1
153310,-0.01660156,1.117676,0.1044922,-13.24463,13.00049,21.54541,95.99304,-4.855957,-81.17798,-8.283334,-87.86667,63.11666,1
153550,-0.06396484,0.7851562999999999,-0.03662109,-15.44189,-10.49805,-5.004883,93.15308,-2.263184,-81.37573,14.38333,-1.208333,-0.9583332999999999,1
153820,0.08886719,1.07666,-0.17480469999999998,-0.9765625,15.19775,-6.591797,92.90588,-2.515869,-84.17175,21.38333,2.866667,3.4,1
154051,0.1030273,0.8793945,0.07177734,1.6479489999999999,-3.723145,10.49805,93.94958,-0.4998779,-84.10583,13.866670000000001,-0.36666669999999996,-0.6416666999999999,1
154310,0.1171875,0.8608397999999999,-0.121582,-1.586914,7.141113,-10.31494,92.62573,-0.4724121,-85.1001,17.78333,-2.141667,1.233333,1
154540,0.060546880000000004,1.137695,0.08447266,-5.7983400000000005,2.929688,17.27295,96.30066,-4.669189,-84.70459,-8.966666,-87.55833,65.83334,1
154800,-0.06933594,0.8325195,-0.05371094,-17.94434,-28.68652,-3.540039,93.75183,-2.658691,-86.66565,14.15833,-1.691667,-1.916667,1
155050,0.01464844,1.103516,0.1699219,16.41846,39.79492,-27.52686,93.92761,-0.7580566,-88.30261,-6.3,-90.14167,65.79166,1
155360,0.06640625,0.8232421999999999,-0.04736328,-9.643555,7.446289,-2.441406,92.47192,-1.642456,-85.79224,14.35833,-1.825,-0.325,1
155650,0.1030273,1.202637,0.2226563,28.74756,0.0,49.25537,94.77905,-2.790527,-85.56152,-9.116667,-88.425,64.575,1
155950,-0.03710938,0.8325195,-0.05517578,-12.87842,-22.03369,-3.967285,92.03796,-2.329102,-85.65491,-8.208333,-89.75,63.16667,1
156220,0.02832031,1.06543,-0.199707,7.8125,10.19287,-8.666992,92.61475,-2.433472,-87.68188,18.48333,1.516667,2.866667,1
156480,0.07861328000000001,0.8315429999999999,0.078125,-1.7700200000000001,-8.850098,19.83643,93.44421,-0.5603026999999999,-87.47314,14.225,-0.9166667,-1.133333,1
156780,0.06835938,1.041992,-0.2202148,9.643555,-10.49805,-1.7700200000000001,93.27393000000001,-0.4998779,-87.13257,19.25833,3.35,2.525,1
157080,-0.04394531,0.8647461,0.02294922,-12.87842,-8.789063,-18.31055,95.15259,-3.12561,-88.18176,14.375,-1.8,-1.891667,1
157430,-0.1020508,1.180176,-0.1489258,6.225586,1.89209,-3.662109,93.87817,-2.087402,-93.36182,18.925,2.783333,1.766667,1
157660,0.05224609,0.7846679999999999,0.01953125,-10.98633,-14.89258,15.07568,94.00452,-0.28564449999999997,-94.25171,-4.441667,-90.575,69.10833,1
157910,0.04199219,1.096191,-0.07275391,1.525879,-3.723145,-1.403809,93.42224,-0.5108642999999999,-94.63623,24.275,-0.7083332999999999,2.55,1
158140,-0.030273440000000002,1.039063,0.08349609,-9.460449,-3.4790039999999998,-12.39014,93.95508,-4.822998,-96.70715,-7.158333,-88.475,69.75833,1
158380,-0.03710938,0.7993163999999999,-0.10839839999999999,-10.19287,-13.61084,5.371094,90.99426,-2.6477049999999998,-97.7124,20.06667,-1.15,0.6083333,1
158650,0.2182617,1.510742,0.1542969,25.57373,30.0293,-36.9873,93.16406,-1.477661,-97.42126,20.18333,3.308333,-1.133333,1
158880,0.1323242,0.8242187999999999,-0.009765625,-7.019043,0.1831055,1.281738,92.71912,-0.6427001999999999,-100.7501,-2.8083329999999997,-91.04166,70.73333,1
159150,0.07519531,1.395508,0.2426758,36.49902,-4.455566,39.79492,95.51514,-0.9558105,-101.7334,-3.291667,-89.49167,73.425,1
160440,0.2875977,1.103516,0.1728516,12.146,7.080078,29.78516,95.96008,-1.9885249999999999,-113.7854,17.96667,1.9916669999999999,-0.5583332999999999,1
160690,-0.04589844,0.8374022999999999,-0.140625,-8.300781,-28.07617,0.9765625,92.62024,-0.8569336,-114.8071,2.491667,-90.7,77.34167,1
160980,-0.04199219,1.219238,0.1567383,8.117676,-31.06689,-8.728026999999999,94.99329,1.18103,-117.6581,16.29167,1.675,-0.2083333,1
161290,0.13476559999999999,0.8984375,-0.1381836,-9.216309,1.586914,-5.249023,92.17529,0.7470703,-124.4531,8.1,-91.58334,79.49167,1
161580,0.09130859,1.342285,0.1293945,2.13623,21.91162,14.03809,95.34485,-2.735596,-124.162,5.316667,-89.29166,81.025,1
161860,-0.08642578000000001,0.7788086,-0.004394531,-18.61572,-9.58252,-3.845215,93.55957,-1.005249,-123.5028,14.175,-2.041667,-1.058333,1
162111,0.09814453000000001,1.569336,0.1103516,23.37646,13.85498,-18.37158,93.91113,-1.263428,-125.7111,7.816667,-90.25833,81.025,1
162420,0.026367190000000002,0.8413086,-0.01220703,-9.82666,2.502441,3.845215,93.28491,-0.2252197,-124.7498,14.35,-2.525,-0.8833333,1
162750,-0.1933594,1.519531,0.33349609999999996,20.38574,-6.713867,62.86621,93.68042,-0.604248,-123.9807,20.43333,2.15,-1.216667,1
163060,-0.04345703,0.8261719,-0.03613281,-12.63428,-23.80371,-3.356934,91.78528,-1.5051269999999999,-123.3655,13.64167,-0.9666665999999999,-1.408333,1
163300,-0.02392578,1.123047,0.19433589999999998,19.22607,1.220703,-17.15088,92.59277,-0.6976317999999999,-125.7275,9.191667,-90.45834,78.85,1
163541,0.06298828000000001,0.8066405999999999,0.09375000000000001,2.258301,-6.408691,19.71436,92.51038,0.02197266,-128.2159,13.675,-1.8,-2.2,1
163770,-0.01855469,1.466797,0.08544922,16.11328,-0.4882813,19.89746,92.4115,0.3295898,-126.3977,10.1,-90.65833,78.29166,1
164010,-0.08349609,1.042969,0.109375,7.019043,-1.159668,-14.95361,94.87244,-3.988037,-127.002,13.56667,0.09166667,-0.6916667,1
164290,-0.1044922,0.8764647999999999,-0.1621094,-22.09473,-23.49854,4.333496,92.71912,-1.598511,-128.172,17.80833,-1.316667,1.291667,1
164520,-0.001953125,1.255371,0.20166019999999998,-2.746582,-20.50781,-17.63916,95.60303,0.4394531,-128.6938,12.10833,-89.475,79.60833,1
164780,0.044921880000000004,0.7905272999999999,0.01269531,-4.089355,-2.01416,6.591797,93.51013,-0.20324709999999999,-128.4796,15.075,-3.066667,-1.308333,1
165000,-0.09326172,1.592285,0.23339839999999998,27.34375,-22.09473,43.45703,94.6637,-0.6701659999999999,-128.6115,10.275,-88.90833,78.93333,1
165280,-0.001953125,0.9707030999999999,0.03808594,-3.967285,-4.882813,-14.83154,95.75684,-4.004517,-129.1772,13.025,-0.17500000000000002,-2.2,1
165550,0.15478519999999998,1.096191,-0.1694336,7.202148,22.82715,-10.00977,93.76282,-2.9827879999999998,-131.8359,19.94167,3.766667,2.391667,1
165820,0.08251953000000001,0.8398437999999999,0.06396484,0.1831055,1.708984,23.37646,94.20227,0.04943848,-128.3368,11.73333,-89.74167,77.40833,1
166090,0.0546875,0.8227538999999999,-0.12695309999999999,4.272461,17.7002,-13.67188,92.7301,-0.5053711,-126.6339,17.08333,-3.466667,1.841667,1
166330,0.1000977,1.096191,0.08935547,0.24414059999999999,0.1831055,2.746582,96.30615,-5.251465,-126.8152,8.15,-87.78333,78.26667,1
166650,0.01953125,0.8789062999999999,-0.1376953,-12.75635,-25.87891,11.16943,93.16406,-3.268433,-130.0507,16.80833,-2.966667,-0.75,1
166980,0.03710938,1.074219,0.168457,-12.20703,-22.3999,-18.12744,94.0979,0.401001,-131.4185,14.76667,1.733333,0.5,1
167290,0.1015625,0.8334961,-0.1401367,5.432129,24.4751,-11.47461,93.0542,-0.43396,-131.0504,19.6,-2.958333,1.516667,1
167520,0.0390625,1.044434,0.1157227,3.356934,9.58252,-7.385254,95.98206,-4.954834,-129.5892,9.441667,-88.90833,79.075,1
167770,-0.08544922,0.8554687999999999,-0.1235352,-8.056641,-18.67676,1.220703,93.76282,-2.235718,-129.3805,17.575,-1.558333,0.36666669999999996,1
168010,0.024902340000000002,1.291504,0.1772461,-1.281738,-16.41846,-13.06152,95.55908,-0.2087402,-128.8257,12.04167,-90.85,78.95834,1
168250,0.04931641,0.7583008,-0.001953125,-4.089355,-15.31982,11.84082,92.80701,-0.2911377,-129.9792,14.64167,-1.675,-2.05,1
168520,-0.1254883,1.083984,-0.04541016,2.685547,-3.234863,-1.098633,91.79077,0.2307129,-129.0454,26.475,3.175,3.141667,1
168750,-0.1474609,0.9155272999999999,0.121582,-7.568359,2.746582,-21.24023,92.45544,-4.9493409999999995,-129.8419,8.733334,-92.36667,77.35833,1
169020,0.13134769999999998,1.13916,-0.07714844,5.249023,18.98193,-7.69043,91.34033,-2.971802,-133.5004,10.06667,-92.86667,78.06667,1
169320,0.0,1.084961,0.15478519999999998,-15.50293,-14.95361,-14.5874,93.94958,0.604248,-132.204,13.825,0.9416667,0.01666667,1
169570,0.11621089999999999,0.7944336,-0.1357422,-1.586914,18.55469,-10.74219,92.31812,-1.005249,-130.155,10.33333,-92.86667,78.98333,1
169840,0.04785156,1.04248,0.13134769999999998,-2.075195,10.00977,-5.187988,95.43274,-4.762573,-130.5725,7.475,-90.36667,81.31667,1
170140,-0.06787109,0.859375,-0.1230469,-4.516602,-21.85059,3.4790039999999998,92.92236,-2.373047,-131.2372,16.825,-1.666667,0.4666667,1
170401,-0.06201172,1.192871,0.15087889999999998,-0.7324219,-22.15576,-6.469727,95.10864,0.03845215,-131.6656,15.35,1.816667,0.5833332999999999,1
170670,0.03759766,0.9091796999999999,-0.2080078,-9.70459,15.31982,-10.19287,92.68616,-0.9503174,-131.3855,17.66667,-0.3833333,0.725,1
171000,0.24902339999999998,1.177246,0.07470703000000001,-2.624512,4.150391,0.7324219,94.71863,-6.278687,-129.809,14.20833,0.9166667,-1.95,1
171280,-0.01757813,0.8442383,-0.05029297,2.624512,-16.60156,11.1084,91.09314,-3.273926,-132.7094,19.78333,-3.233333,0.7000000000000001,1
171610,0.07617188,0.9765625,0.1611328,-5.615234,-2.868652,2.075195,93.58154,0.7305908,-132.0996,13.55833,0.7000000000000001,-0.6583333,1
171930,-0.01220703,1.035156,-0.09765625,11.41357,5.371094,-10.0708,92.61475,-0.5328369,-129.0015,27.875,2.533333,3.95,1
172150,0.13134769999999998,1.369141,0.1235352,1.6479489999999999,-6.347656,16.8457,96.20728,-5.048218,-130.0891,16.20833,1.0,-1.341667,1
172370,-0.07373047,0.7182617,0.015136720000000001,-15.99121,-6.164551,-8.972168,93.78479,-2.763062,-129.6606,14.60833,-2.475,-1.45,1
172580,-0.07666016,1.128418,0.2011719,16.35742,22.88818,-35.46143,95.49866,-0.9283446999999999,-129.375,10.31667,-89.9,80.71667,1
172840,0.052734380000000004,0.7573242,0.02050781,-0.3662109,-0.42724609999999996,18.00537,95.33936,-0.8953857,-129.8584,13.61667,-1.175,-0.9500000000000001,1
173060,0.09082031,1.036133,-0.2602539,5.065918,1.220703,1.342773,94.56482,-0.5822754,-127.6941,9.375,-90.61667,79.05833,1
173310,0.001953125,1.058594,0.1230469,-5.92041,5.92041,-4.638672,95.32837,-5.372314,-126.7218,13.88333,0.36666669999999996,-1.883333,1
173590,0.09521484000000001,1.09668,-0.05908203,11.71875,-8.605957,6.591797,93.64197,-3.949585,-129.5068,6.95,-90.31667,79.41666,1
173850,0.10058589999999999,0.8994141,0.02148438,-1.281738,6.896973,17.33398,94.99878,-0.6866455,-129.1223,9.05,-90.60833,80.28333,1
174160,0.08154297,0.8510742,-0.1376953,-7.080078,11.71875,-11.1084,92.8125,-1.774292,-128.3972,18.18333,-1.4583329999999999,0.65,1
174410,0.01660156,1.203125,0.1318359,-15.01465,16.60156,22.46094,95.53162,-4.971313,-128.8367,5.933333,-89.39167,80.475,1
174670,0.02587891,0.7978516,-0.09179688,-8.178711,-25.63477,6.9580079999999995,91.91162,-2.614746,-130.91310000000001,8.55,-91.40833,79.34167,1
174970,-0.008789063,1.057617,0.2104492,14.77051,22.03369,-27.89307,94.18579,-1.472168,-129.787,18.275,2.666667,-1.65,1
175230,0.10888669999999999,0.7827147999999999,-0.07177734,-8.605957,9.460449,-4.455566,92.18079,-1.977539,-129.4739,15.5,-1.9916669999999999,0.24166669999999998,1
175510,0.16650389999999998,1.07959,0.18164059999999999,10.13184,-2.624512,40.03906,95.44373,-4.180298,-128.985,18.08333,1.25,-0.48333329999999997,1
175840,-0.022460940000000002,0.8164062999999999,-0.1054688,-7.019043,-16.72363,5.554199,92.64221,-2.9608149999999998,-130.3802,17.14167,-2.341667,1.433333,1
176151,0.04199219,1.349121,0.20507809999999999,3.540039,-14.16016,-9.643555,95.65796,-1.851196,-129.1937,15.76667,0.8833333,-0.7000000000000001,1
177360,0.09814453000000001,0.9072266,0.1030273,-1.525879,2.868652,12.08496,93.54858,0.5273438,-127.5348,11.95833,0.9916666999999999,-1.2,1
177580,0.07324219,0.918457,-0.1577148,-6.04248,18.85986,-10.68115,91.18103,-1.120605,-126.59,19.03333,-1.8,1.5,1
177780,-0.06542969,1.676758,0.2670898,28.25928,-11.16943,51.33057,94.00452,-1.73584,-126.2604,23.14167,1.65,-0.6416666999999999,1
178000,-0.03076172,0.8696288999999999,0.07861328000000001,-8.056641,1.89209,-20.81299,94.52637,-5.009766,-126.2384,12.51667,0.1083333,-1.75,1
178220,0.005371094000000001,1.09082,-0.2998047,8.544922,10.0708,-1.159668,93.78479,-3.57605,-129.6387,7.883333,-90.58334,78.8,1
178450,0.041015630000000004,1.057617,0.09863281,2.746582,2.075195,-1.037598,95.23499,-0.24719239999999998,-129.9738,12.775,0.36666669999999996,-0.8083332999999999,1
178710,0.024902340000000002,0.9780272999999999,-0.1298828,2.746582,7.629395,-6.9580079999999995,93.57605,-0.9997558999999999,-129.2102,25.875,3.108333,2.725,1
179010,-0.030273440000000002,0.9658203,-0.01464844,-4.272461,18.06641,-19.04297,95.77332,-5.163574,-127.9742,6.2,-89.78333,79.45,1
179300,0.1303711,1.054199,-0.2973633,8.300781,14.5874,-10.80322,94.39453,-3.773804,-129.3036,7.458333,-90.975,78.925,1
179561,0.01367188,1.039551,0.144043,-9.887695,-0.12207029999999999,-4.211426,94.61975,-0.2142334,-128.7872,13.11667,0.4666667,-1.125,1
179830,0.05517578,0.9121094,-0.08203125,6.774902,13.61084,-14.4043,92.26318,-1.268921,-126.601,8.941667,-92.3,77.34167,1
180120,-0.03271484,1.012207,0.07519531,-0.9765625,12.3291,-10.25391,95.15259,-5.31189,-125.5573,12.325,0.6000000000000001,-1.558333,1
180430,0.18212889999999998,1.171387,-0.05029297,4.272461,5.310059,-2.380371,93.48816,-4.185791,-128.9191,7.516667,-90.85833,78.30833,1
180730,0.09472656,0.7983397999999999,0.022460940000000002,-1.708984,-1.708984,20.69092,94.16931,-0.7855225,-128.8806,13.50833,-0.40833329999999995,-1.025,1
181081,-0.09521484000000001,1.033691,-0.19433589999999998,11.53564,-14.22119,6.04248,94.16931,-0.802002,-128.1665,18.80833,3.4,2.45,1
181350,-0.06201172,0.7817383,0.03515625,-16.05225,-0.6713867,-22.09473,94.9823,-4.125366,-127.8754,13.71667,-2.241667,-1.125,1
181720,0.00390625,1.25,0.18261719999999998,-9.216309,-28.93066,-10.49805,94.30664,-0.9832763999999999,-129.0344,10.94167,-90.24167,78.39167,1
181990,0.08203125,0.7900391,-0.01757813,-4.394531,-3.2958979999999998,-0.06103516,92.29065,-1.472168,-129.8694,14.15,-2.308333,-1.325,1
182230,-0.08203125,1.138184,-0.04833984,3.78418,-27.58789,4.333496,92.30164,-0.9393311,-129.8309,25.375,5.683333,5.825,1
182434,-0.06591797,0.8359375,0.0859375,-11.04736,9.82666,-21.42334,93.80676,-4.295654,-129.1058,8.958333,-89.66666,77.70834,1
182670,-0.02050781,0.8774413999999999,-0.11474609999999999,5.493164,-26.36719,8.544922,91.96106,-3.03772,-132.3688,20.21667,-2.075,-1.116667,1
182930,0.052734380000000004,1.069336,0.1054688,-4.333496,9.216309,-1.6479489999999999,93.21899,-0.6207275,-131.6217,12.25,-90.56667,77.65833,1
183180,0.078125,0.8208008,-0.09521484000000001,-11.1084,19.59229,-7.8125,89.93408,-2.010498,-129.7211,18.19167,-1.725,1.791667,1
183450,0.1640625,1.401855,0.1674805,-3.90625,12.81738,14.89258,94.22424,-5.020752,-128.1335,7.741667,-89.43333,77.325,1
183710,-0.03076172,0.7348633,0.01953125,-15.25879,-10.98633,-8.422852,92.11487,-2.790527,-128.0951,13.55,-1.058333,-0.9416667,1
183960,-0.07177734,1.166992,0.2807617,13.06152,17.7002,-26.79443,93.33984,-1.203003,-129.364,18.48333,2.533333,-2.158333,1
184270,0.1464844,0.8017578,-0.08496094,-11.23047,9.82666,-8.422852,91.66443,-1.494141,-130.9186,11.91667,-91.38333,76.61667,1
184540,0.3134766,1.288086,0.1884766,3.540039,14.34326,27.46582,96.11389,-5.31189,-132.5226,9.55,-88.89167,79.68333,1
184840,-0.015625,0.7246094,-0.0004882813,-16.05225,-1.6479489999999999,-16.29639,93.91663,-4.141846,-131.2097,14.36667,-1.325,-1.45,1
185100,0.1948242,1.556641,0.144043,25.45166,35.82764,-34.5459,94.37805,-2.466431,-131.3745,21.1,3.0,-2.191667,1
185370,0.11279299999999999,0.7534179999999999,0.015625,-7.751465,-9.216309,-2.502441,92.13684,-1.213989,-133.5992,13.95833,-2.033333,-0.075,1
185710,0.06347656,1.258301,0.34033199999999997,21.24023,-4.516602,66.28418,94.71313,-2.9608149999999998,-134.0717,19.11667,2.1,0.15833329999999998,1
186020,-0.07617188,0.7690429999999999,-0.056640630000000004,-8.911133,-17.51709,1.525879,93.31238,-2.889404,-134.1266,14.55,-1.775,0.35000000000000003,1
186240,-0.02392578,1.133789,-0.2304688,2.075195,5.67627,-2.197266,94.01001,-2.949829,-136.1755,20.54167,2.408333,-0.325,1
186470,0.09423828000000001,1.003418,0.09033203000000001,-0.42724609999999996,2.868652,10.37598,93.81226,0.6097412,-137.2137,12.025,1.075,-1.191667,1
186680,-0.0390625,1.072266,-0.08837891,11.53564,2.197266,-12.75635,92.41699,-0.027465820000000002,-135.1648,16.55,-90.48333,78.175,1
186910,0.09033203000000001,1.275391,0.1928711,-5.7983400000000005,15.56396,23.13232,94.80103,-4.564819,-136.3129,16.275,1.058333,-1.075,1
187160,-0.004882813000000001,0.8071288999999999,-0.09619141,-19.71436,-35.09521,14.34326,92.0929,-2.37854,-139.5319,16.21667,-90.31667,78.15833,1
187400,-0.1650391,0.9462891,0.22509769999999998,18.37158,2.563477,-24.16992,93.03772,-1.4556879999999999,-139.1748,17.78333,2.75,-1.166667,1
187690,0.125,0.7856445,-0.09863281,-2.624512,21.54541,-1.220703,91.15356,-2.334595,-139.5868,16.26667,-90.69167,77.41666,1
187980,0.2226563,1.2885739999999999,0.20605469999999998,-6.103516,25.75684,17.76123,93.97156,-5.795288,-136.6479,16.04167,2.225,-0.5750000000000001,1
188290,-0.009277344,0.8198242,-0.02539063,-12.146,-24.29199,0.0,89.93408,-2.686157,-136.4392,15.26667,-91.125,76.6,1
188590,0.03808594,0.9316405999999999,0.21875000000000003,-13.48877,6.774902,-5.371094,90.81848,0.49438479999999996,-135.033,12.33333,1.183333,0.2333333,1
188900,0.121582,0.9589844,-0.07421875,5.7983400000000005,3.601074,-12.75635,90.13184,-0.9448242,-136.4722,17.19167,-91.31667,76.74167,1
189190,-0.06933594,1.01123,0.07421875,4.150391,6.896973,-15.68604,93.35083,-5.119629,-136.8457,14.26667,-89.7,78.85833,1
189460,-0.01171875,0.8198242,-0.048828130000000004,-11.59668,-22.15576,2.13623,90.4834,-2.37854,-138.6035,19.525,-1.025,1.083333,1
189720,0.08203125,1.057617,0.1484375,-21.78955,-15.80811,-12.87842,92.58728,0.6262207,-140.0812,14.00833,1.508333,0.2,1
190030,0.1411133,0.824707,-0.10498049999999999,-8.178711,8.178711,-11.1084,90.46143000000001,-0.5877686,-141.8719,18.13333,-1.55,0.47500000000000003,1
190330,0.10888669999999999,1.070801,0.15869139999999998,-5.92041,-10.00977,5.92041,92.34009,-4.487915,-142.5586,14.25,1.75,-2.416667,1
190670,0.002441406,0.8613280999999999,-0.05615234,14.34326,-17.33398,13.73291,88.69263,-2.5927729999999998,-144.7284,18.11667,-4.266667,1.408333,1
190910,0.03466797,1.026367,0.15917969999999998,-14.95361,8.300781,-2.197266,91.59302,0.6481933999999999,-143.6737,21.71667,-90.425,79.26667,1
191140,0.1025391,0.8159179999999999,-0.03955078,-9.58252,15.50293,-0.793457,89.81873,-1.8402100000000001,-142.2729,15.20833,-1.291667,0.7416667,1
191390,0.12402339999999999,1.026367,0.3378906,7.8125,21.42334,34.30176,92.04895,-3.208008,-138.4332,16.91667,-89.675,79.41666,1
191620,-0.004882813000000001,0.8798828,0.07324219,-10.74219,4.577637,-23.80371,90.74707,-3.147583,-135.9393,14.45833,-0.525,-2.05,1
191910,-0.06640625,1.13916,-0.1933594,10.80322,-6.04248,0.6713867,89.14307,-2.614746,-138.6584,17.74167,-91.08334,77.58334,1
192200,0.08056641,0.7871094,0.08349609,-1.220703,2.075195,21.1792,90.47241,-1.312866,-139.5044,19.06667,-91.10833,78.05833,1
192480,0.02832031,1.0,-0.009277344,9.82666,2.441406,-11.2915,89.48364,-1.065674,-138.8727,19.7,-3.433333,1.75,1
192730,0.09570313,1.039063,0.05175781,2.075195,10.55908,-9.70459,94.47693,-5.048218,-140.0153,17.29167,-89.05,81.225,1
192990,-0.05761719,0.9956054999999999,-0.1523438,5.859375,-15.13672,9.58252,93.59253,-2.565308,-143.2617,20.275,-90.0,80.975,1
194290,0.006835938000000001,0.9365234,-0.07470703000000001,17.33398,-81.05469,14.64844,91.34033,0.19226069999999998,178.6542,22.525,-2.1,0.04166667,1
194530,0.1035156,1.097656,0.1318359,-13.79395,-61.70654,-0.6713867,89.64844,4.740601,166.4044,48.55,-92.31667,66.74167,1
194840,0.137207,0.9648437999999999,-0.1279297,13.30566,-59.14307,-18.61572,83.82019,4.345093,143.6902,54.19167,-92.34167,53.65,1
195100,0.2001953,1.3095700000000001,0.1630859,-0.6103516,-53.03955,6.896973,86.91833,1.8402100000000001,133.1104,17.65833,2.083333,-1.225,1
195360,0.1132813,0.8505859,-0.11865229999999999,2.807617,-89.59961,-3.417969,82.62268,4.586792,108.7866,18.95833,-0.5166666999999999,2.691667,1
195660,0.05419922,1.1323239999999999,0.1635742,-0.8544921999999999,-61.2793,-9.521484,88.46191,5.465698,93.87268,17.09167,1.1,0.075,1
195960,0.1557617,0.8842772999999999,-0.109375,4.760742,-46.75293,-4.943848,84.14429,3.2958979999999998,70.57617,18.2,-1.908333,0.8333332999999999,1
196301,0.09863281,1.346191,0.1806641,-6.530762,-26.00098,17.7002,88.97827,-0.7305908,63.2373,17.025,0.5666667,-0.6916667,1
196540,0.02050781,0.8408203,-0.128418,-7.629395,-41.80908,2.502441,85.39673,0.7635498,53.49243,33.35,-88.85,18.83333,1
196780,0.378418,1.5595700000000001,0.1538086,17.8833,-10.13184,-21.11816,87.70935,0.1593018,49.39453,21.025,3.433333,-1.1,1
197010,0.06689453000000001,0.8300780999999999,0.02783203,-12.69531,-24.10889,2.868652,86.94031,0.2801514,43.87939,28.8,-87.73333,17.39167,1
197260,0.01367188,1.141113,-0.06835938,7.8125,-22.15576,-2.441406,86.59973,0.1812744,40.86914,28.09167,5.941667,5.566667,1
197530,0.04052734,1.242188,0.1411133,-13.97705,-7.69043,22.94922,89.81323,-4.224243,37.6062,15.93333,1.241667,-1.216667,1
197760,0.02685547,0.7617187999999999,-0.02148438,-7.995605,-23.74268,9.643555,86.96228,-2.307129,32.44812,19.74167,-86.75833,17.85,1
198020,-0.1616211,1.179688,0.21386719999999998,18.55469,0.24414059999999999,-24.96338,89.80225,-0.4724121,32.95898,17.14167,2.641667,-1.8,1
198240,0.1416016,0.8051758,-0.046875,-8.178711,-2.258301,0.3051758,88.08838,-1.598511,32.02515,20.74167,-86.675,18.19167,1
198520,0.09619141,1.044922,-0.25537109999999996,9.521484,2.258301,-2.929688,89.79126,-0.7690429999999999,31.53625,17.99167,2.683333,2.366667,1
198750,0.011230470000000001,0.8159179999999999,0.03369141,-15.93018,-5.92041,-26.12305,91.51062,-3.422241,30.97046,18.96667,-87.59167,20.14167,1
199050,0.07226563,1.442383,0.05517578,5.310059,-5.67627,-12.87842,90.9668,-3.290405,26.26282,17.40833,-87.25,19.90833,1
199330,0.1679688,0.9169921999999999,0.1279297,-3.540039,2.319336,7.8125,90.76355,0.2581787,25.43335,13.35833,0.1833333,-0.8083332999999999,1
199580,0.0,1.088867,-0.09912109000000001,10.37598,3.540039,-8.422852,90.03845,-0.9283446999999999,28.97644,19.55833,-87.03333,19.41667,1
199890,-0.04199219,0.9291992,0.03759766,-5.493164,6.835938,-18.00537,92.77405,-5.163574,29.53674,12.866670000000001,-0.04166667,-0.9916666999999999,1
200190,0.1606445,1.165527,-0.08398438,-0.42724609999999996,12.87842,2.13623,91.4447,-4.152832,26.60339,22.83333,4.808333,2.35,1
200530,0.09423828000000001,0.7924804999999999,0.08935547,0.12207029999999999,1.159668,18.73779,90.69763,-1.164551,26.40015,14.84167,-1.591667,-1.283333,1
200760,0.02294922,1.067871,-0.2470703,9.643555,2.868652,2.441406,90.75256,-1.40625,29.525760000000002,19.56667,-87.08334,19.44167,1
201010,0.05566406,1.023438,0.1601563,-3.356934,9.094238,-9.94873,91.30737,-5.679932,29.3335,12.95,0.9083334,-1.9916669999999999,1
201250,0.020996090000000002,1.035645,-0.04003906,11.35254,-10.0708,14.03809,89.05518,-3.850708,28.19641,18.025,-86.39167,18.725,1
201490,-0.026367190000000002,1.254883,0.1928711,-3.601074,-9.399414,-14.64844,91.68091,-0.45593259999999997,29.91028,14.93333,2.258333,0.8916666,1
201780,0.11425779999999999,0.8442383,-0.1171875,-5.67627,27.40479,-8.789063,89.71436,-2.131348,33.16223,22.81667,-87.23333,19.25833,1
202070,0.19384769999999998,1.147461,0.1416016,-2.197266,16.35742,10.19287,93.34534,-6.602783,36.65588,21.39167,-88.83334,21.51667,1
202310,-0.05419922,0.7578125,-0.01806641,-14.83154,-19.34814,-1.037598,91.16455,-4.290161,38.51807,14.175,-1.925,0.275,1
202600,-0.34814449999999997,1.189453,0.2226563,4.150391,5.187988,-8.300781,92.2467,-1.697388,39.79248,26.60833,-88.375,20.31667,1
202860,0.08642578000000001,0.9067383,-0.08691406,-5.126953,9.155273,-0.3662109,88.35754,-2.598267,41.42944,27.05833,-86.96667,18.44167,1
203170,0.2724609,1.459961,-0.004882813000000001,5.065918,-8.666992,3.540039,89.20898,-1.571045,42.07214,20.13333,5.108333,-0.4333333,1
203420,0.04833984,0.8276367,0.07275391,-3.417969,1.403809,-16.17432,88.95081,-3.3728029999999998,40.67139,26.13333,-86.99167,18.26667,1
203680,0.2539063,1.547852,0.2270508,7.385254,44.12842,-34.36279,88.32458,-1.796265,39.02893,26.96667,-87.225,18.45833,1
203980,-0.001464844,0.875,0.168457,2.01416,3.662109,11.77979,87.89063,-0.1593018,38.03467,13.55833,0.275,0.9916666999999999,1
204240,0.04052734,1.149902,-0.05517578,0.0,-3.90625,2.807617,88.50586,-1.126099,36.76575,22.50833,-2.225,3.233333,1
204520,0.0078125,0.8774413999999999,0.1254883,1.281738,7.69043,-15.01465,89.4342,-6.080933,39.2926,13.49167,0.5166666999999999,-0.36666669999999996,1
204850,0.09082031,1.2104489999999999,-0.008300781,-4.150391,9.765625,1.7700200000000001,88.65417,-4.751587,39.39148,23.875,2.525,2.675,1
205160,0.078125,0.8369141,0.1357422,4.211426,9.460449,17.51709,89.23096,-1.708374,39.79797,14.20833,-0.1166667,-0.1166667,1
205390,0.09912109000000001,0.8476562999999999,-0.11083979999999999,1.220703,26.18408,-8.422852,88.73657,-3.224487,42.39075,18.60833,-1.8666669999999999,0.4166667,1
205610,0.05322266,1.138184,0.18603519999999998,-15.625,14.83154,20.69092,92.40051,-6.514893,44.0332,26.78333,-90.15833,20.34167,1
205840,-0.09277344,0.7744141,-0.026367190000000002,-14.95361,-0.8544921999999999,-1.708984,89.50012,-4.070435,45.81299,14.21667,-0.55,-1.216667,1
206080,0.08789063,1.187012,-0.1889648,1.953125,11.53564,-6.408691,89.09912,-4.169312,45.3241,18.45,4.166667,2.416667,1
206450,0.06933594,0.8222655999999999,-0.05029297,-3.540039,8.972168,-1.7700200000000001,88.82996,-2.768555,48.14758,16.85,-0.9,0.15,1
206710,0.1694336,1.053711,0.2871094,-3.601074,19.53125,15.625,90.98328,-4.075928,48.64197,31.03333,-89.65833,20.23333,1
206980,0.06201172,0.8027344,0.04150391,-1.708984,2.441406,-15.38086,90.77454,-3.7683109999999997,48.93311,14.66667,-0.9916666999999999,-1.108333,1
207220,0.2026367,1.546875,0.04199219,18.79883,27.64893,-22.09473,89.88464,-3.092651,49.46045,33.28333,-89.575,21.05,1
207510,0.1030273,0.8427734,-0.01025391,-7.324219,-5.737305,6.591797,90.06592,-1.752319,49.8175,33.20833,-89.1,20.575,1
207790,0.01757813,1.119629,-0.05175781,-1.525879,-15.44189,0.3662109,89.82422,-1.021729,49.07593,23.61667,1.033333,5.808333,1
208040,-0.02539063,0.9223633,0.0625,-2.685547,7.019043,-17.82227,91.64795,-4.905396,52.03125,32.725,-89.91666,21.8,1
208330,0.09765625,1.10498,-0.10498049999999999,-3.540039,9.277344,-6.225586,89.24744,-3.158569,50.72388,21.16667,3.075,3.233333,1
208650,0.05810547,0.8173828,0.06982422,2.13623,-14.09912,17.02881,90.6427,-0.5877686,50.55908,14.40833,-1.508333,-1.158333,1
208960,0.1601563,1.403809,0.05859375,12.81738,-7.8125,8.850098,90.65369,-1.279907,49.32861,20.475,4.4,0.5166666999999999,1
209290,-0.01318359,0.7861328,0.05859375,-12.08496,2.990723,-21.60645,90.98328,-3.4552,50.21301,13.83333,-1.308333,-1.241667,1
209600,0.028808590000000002,1.452637,-0.002441406,11.23047,11.1084,-7.324219,89.23096,-2.878418,47.06543,20.55833,4.841667,1.133333,1
209830,0.044921880000000004,0.7495117,0.056640630000000004,-7.568359,-10.92529,10.98633,89.76929,-2.532349,48.48816,32.08333,-89.075,18.41667,1
210070,0.0625,1.086914,-0.01171875,2.380371,-13.5498,3.112793,89.21997,-2.329102,46.79626,27.05833,2.675,5.5,1
211311,0.0,1.089844,-0.1538086,11.65771,-4.516602,3.540039,89.26941,-1.933594,50.41626,19.85,2.141667,3.516667,1
211510,0.007324219000000001,1.130859,0.1489258,-4.150391,3.112793,10.80322,92.05444,-5.548096,51.30066,14.85833,1.316667,-1.9583329999999999,1
211720,-0.09082031,0.7988280999999999,0.01269531,-14.52637,-13.42773,-5.310059,89.52759,-2.845459,51.39954,14.50833,-0.875,-1.208333,1
211930,-0.1157227,1.146973,0.137207,18.31055,27.03857,-17.15088,88.91785,-1.175537,51.95984,35.25834,-90.1,18.98333,1
212180,0.028808590000000002,0.8481445,0.11279299999999999,1.342773,-1.342773,20.08057,88.83545,-0.8514404,52.53113,14.325,-0.675,-2.15,1
212460,0.04150391,1.040527,-0.1020508,6.591797,-15.625,2.868652,86.87988,-1.6149900000000001,52.58606,34.85833,-89.16666,18.28333,1
212720,0.08349609,1.074707,0.2070313,-8.178711,7.446289,13.24463,89.6814,-5.888672,52.56409,14.80833,1.858333,-0.7583333,1
212950,0.02050781,0.8466796999999999,-0.10888669999999999,6.835938,-17.8833,7.568359,86.9458,-3.878174,52.27844,33.60833,-89.36667,18.575,1
213210,-0.1337891,1.150879,0.20556639999999998,19.47021,0.8544921999999999,-15.93018,89.40125,-1.554565,53.42651,17.60833,3.575,-1.7083329999999999,1
213490,0.1518555,0.8461913999999999,-0.06396484,-8.300781,8.972168,0.6713867,87.67639,-2.125854,51.712650000000004,16.76667,-1.641667,1.308333,1
213760,0.1733398,1.130859,0.25537109999999996,3.662109,26.18408,19.77539,91.38977,-4.581299,52.39929,33.24166,-90.85,21.025,1
214030,-0.05566406,0.7915038999999999,0.028808590000000002,-17.8833,-2.624512,-21.66748,89.57153,-3.411255,53.56934,14.13333,-1.591667,-1.35,1
214290,0.2529297,1.577637,0.1171875,28.19824,35.64453,-28.50342,88.81348,-2.202759,52.00928,18.75833,3.625,-0.3083333,1
214580,0.07275391,0.8125,0.004882813000000001,-2.868652,-0.06103516,-3.051758,88.92334,-1.834717,52.62451,35.575,-88.875,18.775,1
214900,-0.01660156,1.379395,0.1362305,35.33936,-10.98633,43.82324,90.39001,-2.49939,52.78931,18.5,3.866667,-1.95,1
215120,-0.08300781,0.8676758,0.08349609,-4.760742,9.094238,-21.05713,90.04944,-4.526367,55.15137,13.25833,-0.35833329999999997,-1.516667,1
215350,0.078125,1.116211,-0.28564449999999997,5.065918,9.399414,-7.69043,88.66516,-2.796021,53.7616,35.425,-89.25833,17.98333,1
215590,0.02783203,1.003906,0.1499023,-11.41357,-8.972168,-7.446289,90.25269,-0.2581787,52.70691,13.39167,0.6916667,-0.47500000000000003,1
215860,0.09326172,0.8583984,-0.07861328000000001,-9.460449,-11.41357,7.080078,88.40149,-2.779541,51.41602,15.94167,-1.266667,0.3833333,1
216080,0.2651367,1.191895,-0.13525389999999998,9.887695,12.69531,-5.7983400000000005,89.53857,-2.576294,52.33337,18.65,4.075,0.7666666999999999,1
216280,-0.011230470000000001,0.7890625,0.060546880000000004,-13.42773,0.9765625,-21.85059,90.75806,-3.762817,53.08044,34.95,-90.95,19.475,1
216540,0.10058589999999999,1.084473,-0.03662109,-2.441406,-1.8310549999999999,6.652832,88.83545,-3.065186,50.5481,22.89167,0.4166667,0.8166667,1
216780,0.05029297,0.9492187999999999,0.1689453,-2.01416,6.225586,7.019043,89.28589,0.2362061,52.85522,13.95833,0.6083333,-0.8166667,1
217090,-0.02148438,1.151855,-0.04589844,9.58252,-15.44189,1.8310549999999999,87.995,-0.9338379,54.10767,37.66667,-89.45834,18.39167,1
217380,-0.026367190000000002,0.9379883,0.06298828000000001,-7.995605,-4.455566,-13.48877,91.06018,-2.861938,53.64075,36.34167,-90.91666,20.44167,1
217650,-0.01904297,0.8378905999999999,-0.09619141,-7.263184,-17.8833,3.112793,87.14905,-1.208496,53.05298,20.05,-0.6583333,-1.5,1
217911,0.06103516,1.120117,0.1616211,-8.239746,-20.69092,-15.44189,89.64294,0.02197266,51.72913,36.73333,-89.05833,19.09167,1
218200,0.1616211,0.8149413999999999,-0.06005859,0.6713867,6.835938,-7.995605,87.02271,-1.279907,48.27393,19.05833,-2.783333,1.8333329999999999,1
218520,0.1694336,1.04248,0.11083979999999999,-9.033203,-3.051758,4.394531,90.53284,-6.322632,50.89417,13.30833,1.508333,-2.225,1
218830,0.04980469,0.9101562999999999,-0.10107419999999999,9.521484,-16.96777,10.0708,87.19299,-4.268188,50.04822,21.0,-1.516667,-0.4166667,1
219160,-0.015136720000000001,0.9804687999999999,0.17382809999999999,-13.48877,2.319336,-7.93457,88.62671,-0.2197266,51.11389,13.175,0.625,0.3833333,1
219481,0.06005859,1.039063,-0.07666016,3.540039,-2.746582,0.0,88.64319,-2.39502,51.62476,28.925,2.875,2.391667,1
219710,0.011230470000000001,0.9790038999999999,0.06738281,-0.5493163999999999,20.93506,-16.6626,91.05469,-6.470947,53.13538,32.575,-90.20834,19.84167,1
219950,-0.01318359,0.8271484,-0.08300781,-8.728026999999999,-24.53613,8.300781,88.52783,-3.543091,53.59131,19.30833,-1.041667,-0.5083333,1
220180,0.16259769999999998,1.427246,0.1235352,22.82715,19.83643,-28.38135,90.25818,-2.70813,53.63525,18.66667,3.275,-1.591667,1
220400,0.11279299999999999,0.8120117,0.009277344,-7.019043,-5.493164,0.3051758,89.37378,-1.972046,52.45972,35.35833,-89.975,17.76667,1
220641,-0.06396484,1.06543,-0.1416016,12.57324,-14.83154,9.277344,89.73083,-1.071167,51.70166,25.2,4.116667,4.166667,1
220920,-0.04394531,0.8847655999999999,0.04785156,-10.74219,1.953125,-19.83643,91.62598,-4.669189,52.16309,34.00834,-91.94167,18.79167,1
221190,0.05761719,1.083496,-0.25537109999999996,7.263184,14.22119,-8.666992,89.73633,-2.488403,50.55359,34.1,-91.30833,17.225,1
221500,-0.01416016,0.9765625,0.1723633,-16.35742,-4.455566,-3.112793,90.41748,0.4229736,50.43823,13.01667,1.308333,-1.0,1
221750,0.04052734,0.9379883,-0.09033203000000001,7.446289,14.22119,-4.882813,87.5885,-1.422729,50.90515,35.13334,-90.66666,17.26667,1
222010,0.07324219,0.9814453,0.128418,2.075195,-2.13623,-4.821777,90.68115,-5.74585,50.49866,31.88333,-92.4,19.20833,1
222310,-0.01660156,0.8759766,-0.11425779999999999,-6.225586,-12.51221,-1.281738,88.33008,-2.5927729999999998,49.87793,20.15,-0.8,0.8166667,1
222560,0.03662109,1.134766,0.206543,-4.333496,-20.1416,-9.460449,91.68091,-0.34606929999999997,52.14661,14.54167,1.825,0.0,1
222840,0.1020508,0.8769530999999999,-0.1303711,-6.835938,11.47461,-7.507324,89.1925,-1.691895,51.97632,18.88333,-0.8583333999999999,-0.05,1
223180,0.12695309999999999,1.150879,0.171875,-14.16016,14.09912,19.34814,92.01599,-5.31189,51.67969,15.23333,0.9416667,-1.566667,1
223440,-0.015136720000000001,0.8686522999999999,-0.09228516,-4.394531,-10.68115,9.094238,88.20374,-3.290405,50.63599,18.65833,-4.825,0.5166666999999999,1
223821,0.08398438,0.7763671999999999,0.04541016,-0.3051758,-8.422852,20.08057,88.85742,-1.246948,50.92163,33.65833,-88.56667,19.68333,1
224050,0.06201172,0.9750977,-0.04296875,8.178711,10.98633,-12.51221,88.1488,-1.367798,52.84973,25.55,0.9583332999999999,2.441667,1
224320,0.15087889999999998,1.01709,0.1928711,5.187988,21.97266,10.43701,91.82922,-4.229736,51.08093,15.84167,2.416667,-0.4,1
224530,-0.03759766,0.7875977,0.03417969,-12.93945,-9.887695,-15.01465,89.74182,-3.103638,52.20154,14.8,-1.875,-0.8333332999999999,1
224750,0.07714844,1.377441,0.2670898,21.60645,15.80811,-30.09033,90.63171,-2.202759,51.03149,33.14167,-88.59167,21.425,1
224990,0.10498049999999999,0.7998046999999999,0.06152344,-0.6103516,1.586914,19.40918,90.19775,-0.7745361,49.74609,14.15,-0.47500000000000003,-0.7833333,1
225240,-0.03759766,1.21875,-0.1542969,3.234863,-5.493164,8.483887,89.40674,-1.252441,50.98755,18.4,4.766667,0.4333333,1
225550,-0.04052734,0.8007812999999999,0.04931641,-11.71875,3.234863,-21.91162,89.97803,-3.894653,51.81152,32.65,-87.875,20.15833,1
225840,0.1650391,1.529297,0.08349609,19.83643,24.04785,-21.54541,89.08813,-2.878418,51.05896,34.05,-87.30833,19.61667,1
226120,0.07275391,0.8603516,0.152832,-0.3662109,5.187988,11.59668,89.41223,-0.02197266,52.75085,13.55,0.1,-0.6583333,1
226370,-0.1879883,1.097168,-0.04980469,6.347656,-26.06201,5.737305,87.98401,-1.708374,51.97632,33.31667,-86.475,17.98333,1
226660,-0.026367190000000002,0.8691405999999999,0.09570313,-6.347656,5.92041,-27.40479,91.07666,-5.570068,50.81726,12.83333,-0.8,-2.141667,1
227950,-0.02832031,0.8066405999999999,0.02539063,-11.16943,3.112793,-12.08496,89.0387,-3.696899,56.9751,14.35833,-1.416667,-1.525,1
228180,0.07421875,1.335938,0.2744141,16.17432,32.2876,-34.48486,88.84644,-2.021484,58.97461,18.275,4.033333,-2.466667,1
228460,0.07714844,0.8608397999999999,-0.046875,1.098633,8.850098,1.8310549999999999,88.74756000000001,-2.186279,60.18311,39.68333,-88.75,18.58333,1
228780,0.2163086,1.187988,0.1845703,13.12256,-0.06103516,29.90723,92.29065,-4.817505,59.91943,37.48333,-91.45834,20.95,1
229080,-0.02148438,0.8251953,-0.05419922,-9.765625,-5.981445,-1.6479489999999999,88.36304,-3.669434,62.64954,16.7,-0.2333333,0.30000000000000004,1
229450,0.05175781,0.8979492,0.18945309999999999,-8.422852,1.159668,-3.90625,89.14307,-0.6427001999999999,65.93994,43.425,-89.325,20.34167,1
229690,0.06640625,0.9067383,-0.09619141,-4.577637,3.234863,-0.5493163999999999,87.57751,-2.268677,65.93994,19.525,0.03333333,0.2,1
229960,0.23779299999999998,1.404785,0.1074219,28.13721,-16.23535,18.00537,88.94531,-1.972046,65.50598,18.01667,3.208333,0.35000000000000003,1
230170,-0.08203125,0.9545897999999999,0.09033203000000001,-2.990723,4.699707,-12.93945,90.13733,-5.493164,66.28601,12.49167,0.7666666999999999,-1.966667,1
230380,0.1679688,1.137207,-0.105957,1.89209,7.385254,-1.586914,87.53906,-4.855957,65.23132,39.925,-90.14167,19.475,1
230610,0.01611328,1.025879,0.1518555,-1.708984,18.98193,2.13623,89.5166,-2.026978,67.70874,12.85,1.741667,-0.01666667,1
230870,0.1123047,0.9257812999999999,-0.05761719,3.234863,12.75635,-8.911133,88.0719,-3.411255,72.08679,43.99166,-90.55833,22.825,1
231120,0.3461914,0.9887695,0.2714844,-5.004883,29.54102,13.30566,91.13708,-6.289673,72.63611,16.05,3.158333,-0.8583333999999999,1
231380,0.00390625,0.7812500000000001,0.052734380000000004,-11.23047,6.896973,-19.104,89.198,-5.004272,76.61316,15.20833,-1.608333,-0.65,1
231620,0.16259769999999998,1.504883,0.08544922,26.9165,25.5127,-23.01025,88.91785,-4.471436,77.3053,46.675,-91.74167,26.575,1
231870,0.11865229999999999,0.8261719,0.0078125,-2.380371,9.82666,5.981445,89.63196,-3.630981,80.22217,47.18333,-91.71667,27.45,1
232180,-0.06542969,1.150391,-0.04150391,-0.3662109,-15.25879,-6.408691,89.55505,-2.675171,81.94153,26.95,3.241667,3.658333,1
232420,-0.044921880000000004,0.9018554999999999,0.07275391,-1.281738,7.629395,-13.42773,90.95581,-5.83374,82.45239,13.68333,0.1333333,-1.308333,1
232690,0.15039059999999999,1.143066,-0.044921880000000004,1.953125,16.05225,-2.807617,88.58826,-4.493408,83.46863,47.53333,-91.74167,27.775,1
233010,0.08154297,0.8613280999999999,0.08544922,8.422852,1.098633,20.99609,89.97253,-2.026978,84.33105,49.01667,-91.625,29.19167,1
233310,-0.009277344,1.084961,-0.2041016,9.155273,-12.69531,2.13623,90.401,-2.532349,86.53381,18.43333,3.258333,1.525,1
233680,-0.06982422,0.8188477,-0.03173828,-9.033203,-10.0708,-2.624512,87.75879,-3.213501,87.75879,49.60833,-91.53333,29.66667,1
233910,0.01855469,1.365723,0.07275391,4.760742,6.164551,-7.324219,88.70911,-3.718872,87.7478,17.71667,3.783333,0.7666666999999999,1
234190,0.09863281,0.9272461,0.17041019999999998,-1.342773,4.638672,6.347656,89.90662,-0.5767822,88.35754,13.71667,0.5166666999999999,-0.1083333,1
234400,0.05908203,0.9233397999999999,-0.1542969,-4.455566,19.47021,-1.281738,88.86841,-2.548828,89.50562,19.175,0.2083333,0.1166667,1
234610,0.01269531,1.192871,0.2509766,-10.19287,18.61572,10.0708,91.81274,-5.234985,88.82996,48.38334,-93.20834,32.16667,1
234850,0.08691406,0.7636719,0.02978516,-5.310059,-6.835938,-14.64844,89.57703,-3.7133789999999998,88.15979,14.78333,-1.5833329999999999,-0.7333333,1
235100,0.1879883,1.536621,0.1611328,26.67236,23.37646,-22.27783,90.44495,-2.598267,88.5498,50.45833,-91.93333,31.6,1
235340,0.0703125,0.8974609,0.1333008,-6.408691,5.554199,12.63428,90.51086,-0.04943848,89.97253,13.45,0.2583333,-0.9,1
235640,-0.08105469,1.140625,-0.1030273,9.277344,-10.25391,9.155273,89.99451,-1.6479489999999999,93.08167,52.04167,-91.525,33.6,1
235920,-0.020996090000000002,0.8706054999999999,0.06396484,-15.44189,0.3051758,-24.6582,91.34033,-4.9823,92.9718,12.741670000000001,-0.2,-1.808333,1
236240,0.01806641,1.17334,-0.09570313,-3.723145,10.0708,-2.380371,89.68689,-3.641968,90.81299,50.35,-92.175,32.875,1
236530,0.08447266,0.7973633,0.03808594,-2.380371,9.399414,16.29639,90.8075,-2.076416,92.55432,14.91667,-1.983333,-0.8250000000000001,1
236840,-0.1630859,1.585938,0.19824219999999998,29.60205,-40.03906,47.11914,90.85144,-3.433228,94.35059,49.45833,-93.35,35.21667,1
237150,-0.03125,0.7128905999999999,0.02441406,-2.746582,8.178711,-10.80322,89.99451,-4.328613,96.95435,15.275,-2.35,-0.975,1
237480,0.18994139999999998,1.526367,0.253418,16.90674,27.64893,-44.6167,90.91736,-2.93335,98.01453,19.54167,2.966667,-1.95,1
237760,0.1137695,0.8325195,-0.007324219000000001,-8.422852,-8.178711,-4.577637,89.6814,-1.620483,96.53687,14.23333,-1.9000000000000001,0.4,1
238080,0.40332029999999996,1.124512,0.15625,6.469727,-1.220703,25.45166,92.37305,-4.367065,95.33386,18.59167,2.816667,-0.4666667,1
238400,-0.1020508,0.7509766,-0.06640625,-2.13623,-10.13184,0.793457,89.56604,-3.048706,95.96558,16.40833,-1.575,1.1,1
238620,0.1572266,1.567871,0.1040039,8.850098,26.67236,-23.13232,90.77454,-3.55957,94.52087,21.075,3.691667,-0.35000000000000003,1
238840,0.05712891,0.7363280999999999,0.05029297,-0.3051758,-0.3662109,5.065918,90.03845,-2.460938,94.96582,52.325,-92.075,35.50834,1
239090,-0.08349609,1.152832,-0.1201172,7.080078,-9.399414,9.399414,90.27466,-1.812744,97.64648,26.55833,4.325,4.825,1
239330,0.02587891,0.8789062999999999,0.08886719,-15.19775,0.24414059999999999,-22.88818,91.66992,-5.328369,96.10291,50.675,-93.85,37.35,1
239570,0.006347656,0.828125,-0.06005859,-0.3662109,-20.93506,7.995605,88.40149,-3.2958979999999998,94.29016,19.45833,-2.533333,-0.35000000000000003,1
239850,0.02929688,1.056641,0.1801758,-12.39014,-15.25879,-13.85498,90.82397,-0.18676759999999998,94.48242,54.23333,-91.15,35.34167,1
240150,0.1293945,0.840332,-0.1079102,4.760742,32.71484,-8.300781,89.41223,-1.071167,95.71838,17.43333,-4.45,2.241667,1
240460,0.08007813,1.065918,0.11425779999999999,3.601074,-9.033203,-4.150391,94.06494,-5.350342,96.47095,51.15833,-94.16666,39.34167,1
240750,-0.006347656,0.9487304999999999,-0.105957,-9.765625,-15.38086,17.7002,91.75232,-3.504639,91.18103,19.525,-3.35,0.1,1
241070,0.005371094000000001,0.9868163999999999,0.16259769999999998,-15.80811,-3.173828,-10.55908,92.80151,0.19226069999999998,92.96082,54.00834,-91.6,35.8,1
241360,-0.06396484,1.068359,-0.1020508,7.202148,4.089355,-5.67627,91.73035,-1.120605,95.35583,54.11666,-91.75,36.35833,1
241630,0.04003906,1.156738,0.1445313,2.990723,16.78467,26.67236,95.27344,-4.921875,94.57031,16.825,0.7833333,-0.1833333,1
241890,0.01025391,0.8325195,-0.1401367,-14.77051,-23.80371,2.624512,91.85669,-3.043213,91.91711,18.81667,-0.7166667,-0.6416666999999999,1
242200,0.0546875,1.139648,0.1538086,2.319336,-14.70947,-13.61084,93.46619,-0.7525634999999999,93.0542,15.26667,2.35,-0.09166667,1
242500,0.08056641,0.8964844,-0.11669919999999999,-8.117676,10.19287,-4.699707,90.75256,-1.5325929999999999,92.93335,17.45,-0.48333329999999997,0.7333333,1
242800,-0.01416016,1.203613,0.1640625,-4.150391,17.08984,21.3623,94.38354,-4.152832,92.42798,16.4,0.9500000000000001,-1.058333,1
243181,0.09521484000000001,1.056152,-0.01171875,1.464844,9.399414,-3.051758,91.203,-2.9882809999999997,91.32935,24.45833,2.133333,4.491667,1
243460,0.04736328,1.173828,0.1875,-2.380371,-14.77051,-22.33887,94.09241,0.2581787,91.4502,14.96667,1.533333,0.17500000000000002,1
243680,0.03369141,0.8896484,-0.1479492,-3.723145,13.61084,-5.004883,91.49963,-0.9503174,92.01599,53.425,-91.80833,34.19167,1
243910,-0.18212889999999998,1.6323239999999999,0.24462889999999998,32.22656,-10.43701,45.77637,93.29041,-1.582031,91.87866,20.48333,2.016667,-1.25,1
245140,-0.1762695,1.524902,0.01611328,20.20264,34.66797,34.17969,93.62549,-5.531616,116.6418,18.91667,1.95,0.8,1
245351,0.020996090000000002,0.9770508,0.07275391,-2.380371,46.81396,-16.29639,93.63647,-9.920654,125.6561,14.40833,-0.7333333,-0.2666667,1
245580,0.03320313,0.9609375,-0.09667969,17.51709,41.74805,9.094238,91.38428,-9.497681,140.4767,47.875,-96.01667,64.55833,1
245850,0.1806641,1.27002,0.1191406,2.990723,38.14697,-6.469727,93.57056,-8.97583,151.3696,17.45,1.233333,1.45,1
246090,0.00390625,0.9301758,-0.1689453,1.159668,95.76416,-9.94873,89.90662,-10.71167,175.6329,33.20833,-94.20834,80.20834,1
246390,0.08154297,1.14209,0.121582,13.06152,74.15771,26.30615,92.63672,-11.99707,-168.2117,18.04167,0.9500000000000001,0.2,1
246701,-0.1337891,0.8969727,-0.08349609,-8.728026999999999,49.56055,1.159668,86.94031,-9.854736,-148.3813,12.36667,-92.15,82.45,1
246990,0.03710938,1.262207,0.1118164,7.507324,16.41846,0.0,89.95056,-7.388306,-136.8677,6.983333,-90.20834,82.225,1
247270,0.10888669999999999,0.8676758,0.022460940000000002,0.0,60.2417,10.62012,88.92334,-8.503418,-127.2876,15.95833,-2.25,-0.375,1
247510,0.1767578,1.024902,-0.1020508,19.47021,25.57373,-0.793457,88.34106,-8.102417,-109.3634,-8.633333,-85.73333,71.90833,1
247830,-0.004394531,0.8149413999999999,0.03271484,-11.59668,49.86572,-26.7334,88.09387,-8.278198,-97.57507,15.84167,-1.233333,-1.591667,1
248141,-0.1401367,1.20752,-0.04199219,18.61572,2.380371,6.347656,88.29712,-6.141357,-88.84094,19.2,3.275,0.5916667,1
248470,0.01269531,0.7690429999999999,0.03515625,-2.990723,2.441406,9.399414,89.62646,-4.432983,-84.51782,14.51667,-2.275,-1.133333,1
248700,0.05957031,1.62793,0.09814453000000001,19.59229,-9.033203,24.04785,91.08765,-3.729858,-81.62292,-5.4,-80.43333,57.83333,1
248950,-0.08691406,0.9501953,0.04199219,-1.098633,16.29639,-17.02881,92.47192,-5.855713,-79.32129,13.14167,0.15,-0.7666666999999999,1
249190,0.01806641,1.097656,-0.05371094,1.342773,4.577637,0.42724609999999996,91.70288,-2.389526,-80.59021,-4.541667,-81.15833,59.7,1
249421,0.1450195,1.117188,0.15625,-15.01465,-7.263184,-19.34814,94.25171,-0.04943848,-79.62341,14.925,1.433333,-0.7083332999999999,1
249690,0.06005859,0.7851562999999999,-0.02050781,-11.23047,-10.25391,0.0,91.35132,-1.087646,-80.63965,14.85,-1.791667,-0.6333333,1
249910,0.01806641,1.069336,-0.08447266,6.530762,-18.49365,5.065918,91.18103,-0.39550779999999996,-81.57898,20.25833,2.641667,4.0,1
250140,-0.01220703,0.8476562999999999,0.05957031,-10.92529,5.67627,-22.3999,93.4552,-3.773804,-81.38672,13.325,-0.9583332999999999,-0.7333333,1
250410,-0.02392578,1.062988,-0.2958984,9.460449,25.08545,-6.347656,92.7301,-2.164307,-81.59546,-11.85,-85.53333,58.36666,1
250670,-0.07910156,1.005371,0.1538086,-12.3291,-16.60156,-10.55908,94.54834,1.054688,-80.89783,13.43333,0.06666667,-0.7333333,1
250930,0.0390625,0.9248046999999999,-0.1328125,4.455566,9.765625,-10.43701,92.66418,-0.2966309,-82.14478,-9.125,-87.70834,58.23333,1
251220,0.02001953,1.045898,0.08837891,0.3051758,0.9155272999999999,-8.483887,95.12512,-4.735107,-82.80945,-11.26667,-85.29166,59.53333,1
251500,-0.006347656,0.8286133,-0.1113281,-14.52637,-23.68164,3.662109,91.83472,-2.5927729999999998,-84.2981,18.45,-0.2666667,-0.025,1
251750,-0.004882813000000001,1.282227,0.16259769999999998,4.577637,-22.64404,-13.79395,93.93311,-0.9722900000000001,-83.61145,-7.75,-88.46667,59.10833,1
252040,0.1259766,0.8974609,-0.1289063,-8.972168,19.59229,-5.67627,90.84595,-1.994019,-83.67188,18.89167,-0.9166667,1.35,1
252360,-0.1044922,1.2685549999999999,0.121582,-3.845215,14.52637,29.41895,95.51514,-5.322876,-83.70483,15.79167,0.975,-1.7083329999999999,1
252670,0.05224609,0.8227538999999999,-0.08886719,-10.86426,-24.04785,4.455566,91.86768000000001,-2.642212,-85.90759,18.55,-2.366667,0.25,1
253030,0.09130859,0.8789062999999999,0.05371094,-0.1831055,5.981445,17.76123,94.00452,-0.7800292999999999,-85.76477,-9.091666,-88.83334,61.24166,1
253290,0.08837891,0.8549804999999999,-0.1230469,-0.3051758,18.9209,-8.789063,92.06543,-1.63147,-83.74878,18.45833,-3.616667,1.383333,1
253550,0.03369141,1.044434,0.1171875,-8.483887,2.624512,7.324219,95.34485,-5.586548,-82.32056,-11.575,-86.475,59.46667,1
253790,-0.07666016,0.8178711,-0.078125,-12.69531,-19.65332,-1.342773,92.42249,-2.927856,-84.65515,15.63333,-1.45,-1.225,1
254020,-0.06445313,1.1791989999999999,-0.2402344,1.403809,8.300781,-1.403809,91.91711,-2.861938,-85.52307,20.08333,3.6,2.658333,1
254250,0.06396484,0.7885742,0.07519531,-3.173828,5.493164,15.13672,92.37305,-0.736084,-84.73755,14.78333,-1.7083329999999999,-1.358333,1
254560,0.22900389999999998,1.274902,-0.05761719,17.33398,-7.995605,4.394531,92.72461,-0.01098633,-82.04041,-6.591667,-89.85,58.64167,1
254850,0.00390625,0.7509766,0.0390625,-18.31055,-1.586914,-15.01465,93.94958,-2.444458,-84.0564,13.975,-1.908333,-2.041667,1
255171,0.2011719,1.556152,0.08886719,23.92578,19.71436,-20.08057,92.20276,-1.757813,-84.99023,-6.066667,-90.24167,60.025,1
255460,0.052734380000000004,0.7836913999999999,0.015136720000000001,-1.159668,-8.483887,5.493164,92.27966,-0.9118651999999999,-85.49011,-5.866667,-90.45,60.79167,1
255730,-0.07617188,1.161621,-0.06640625,4.455566,-19.16504,0.24414059999999999,92.58728,0.18676759999999998,-85.2594,24.23333,3.175,4.866667,1
255980,-0.008789063,0.9072266,0.07275391,-11.16943,-3.173828,-18.73779,93.97705,-4.334106,-88.66516,-8.175,-88.56667,63.80833,1
256270,0.04589844,1.063965,-0.2827148,10.74219,13.91602,-5.554199,91.50513,-2.93335,-90.87891,20.925,2.958333,3.441667,1
256581,0.07958984,0.7758788999999999,0.06298828000000001,-2.685547,-2.319336,19.34814,92.8949,-0.7745361,-90.37903,-6.925,-89.98333,64.45834,1
256890,0.1621094,1.251953,-0.07910156,-4.333496,-10.62012,4.02832,91.92261,-1.082153,-89.85718,19.45833,4.016667,1.783333,1
257230,-0.04248047,0.7587891,0.05810547,-15.38086,-6.530762,-21.48438,92.96631000000001,-3.032227,-90.21973,16.0,-1.983333,-2.333333,1
257540,-0.07373047,1.415527,0.1123047,18.31055,11.53564,1.037598,91.64795,-2.158813,-92.38403,22.50833,3.75,-0.7166667,1
257770,0.05419922,0.7832030999999999,0.011230470000000001,-4.516602,-2.197266,9.399414,91.59851,-1.367798,-90.99426,-7.091667,-90.475,63.43333,1
258010,-0.14697269999999998,1.141113,-0.02978516,4.02832,-28.32031,3.234863,90.46143000000001,-0.39550779999999996,-90.3186,26.15,5.516667,6.15,1
258250,0.05615234,1.3095700000000001,0.1518555,-8.728026999999999,14.28223,12.02393,93.57605,-4.674683,-92.02698,16.825,1.466667,-0.40833329999999995,1
