Timestamp,AccX,AccY,AccZ,GyroX,GyroY,GyroZ,AngX,AngY,AngZ,MagX,MagY,MagZ,Tag
0,0.02392578,0.9960937999999999,0.06396484,-0.24414059999999999,-0.24414059999999999,-0.24414059999999999,89.05518,1.906128,50.52063,16.99167,1.041667,0.05,1
403,0.03222656,0.9931641,0.06347656,0.9155272999999999,-1.8310549999999999,-0.6713867,89.1925,1.9006349999999999,50.22949,17.00833,1.025,0.1333333,1
633,0.03076172,1.0,0.05419922,0.9765625,-0.42724609999999996,-0.6713867,89.33533,1.889648,50.03723,16.98333,0.9833333999999999,0.03333333,1
833,0.02587891,0.9970703,0.0546875,0.3051758,-0.12207029999999999,-0.793457,89.53308,1.856689,50.00427,17.04167,0.9,0.1083333,1
1043,0.03417969,0.9980469,0.0546875,0.6103516,-0.24414059999999999,-0.5493163999999999,89.70337,1.829224,49.87244,17.08333,0.925,0.04166667,1
1243,0.026367190000000002,1.0,0.04833984,0.42724609999999996,-0.3051758,-0.8544921999999999,89.79675,1.801758,49.8175,17.04167,0.975,0.05833333,1
1443,0.02929688,0.9956054999999999,0.0546875,0.9155272999999999,-0.12207029999999999,-0.42724609999999996,89.9231,1.746826,49.9054,17.05833,0.85,-0.008333334000000001,1
1650,0.03417969,0.9990234,0.05224609,0.6103516,-0.24414059999999999,-1.037598,90.01648,1.7028809999999999,49.91638,17.925,-40.63334,-3.691667,1
2003,0.028808590000000002,0.9946288999999999,0.05712891,-0.06103516,-0.06103516,-0.793457,90.07141,1.691895,50.03174,17.09167,0.9166667,0.05833333,1
2273,0.03320313,1.000977,0.05322266,0.0,-0.1831055,-0.42724609999999996,90.04944,1.664429,49.97681,17.83333,-40.89167,-3.833333,1
2573,0.03662109,1.004883,0.05029297,0.06103516,-0.7324219,-1.098633,90.12634,1.680908,49.85046,17.1,0.8416665999999999,0.2,1
2873,0.030273440000000002,1.00293,0.04931641,0.5493163999999999,-1.159668,-0.8544921999999999,90.34607,1.669922,49.77356,17.69167,-40.5,-3.766667,1
3173,0.03564453,1.000488,0.04248047,0.3051758,-1.464844,-0.9155272999999999,90.51086,1.680908,49.48792,17.05833,0.7583333,0.025,1
3473,0.03125,1.0,0.04589844,0.5493163999999999,-0.1831055,-0.4882813,90.60974,1.757813,49.32861,17.84167,-40.70833,-3.833333,1
3763,0.03173828,0.9941405999999999,0.04980469,0.793457,-1.098633,-1.098633,90.65918,1.790771,49.19678,17.88333,-40.875,-3.8083329999999997,1
4094,0.03369141,1.005371,0.04248047,0.3662109,-0.6713867,-0.5493163999999999,90.69214,1.829224,49.07593,17.08333,0.6666667,0.1416667,1
4333,0.03369141,0.9882812999999999,0.04736328,0.0,0.8544921999999999,-0.5493163999999999,90.91187,1.680908,49.21875,17.14167,0.775,-0.17500000000000002,1
4623,0.04443359,1.008789,0.030273440000000002,1.464844,-0.9765625,0.12207029999999999,90.9613,1.582031,48.88916,16.98333,0.8583333999999999,0.17500000000000002,1
4873,0.026367190000000002,0.9995117,0.03125,2.624512,0.0,-1.525879,91.23047,1.785278,48.79578,17.18333,0.425,0.2916667,1
5093,0.03271484,0.9858397999999999,0.030273440000000002,-0.3051758,0.3051758,-0.6103516,91.55457,1.8951419999999999,48.83423,17.83333,-40.325,-3.041667,1
5363,0.03613281,1.007324,0.02001953,1.342773,-0.42724609999999996,-1.464844,91.62048,1.8731689999999999,48.80127,17.93333,-40.25,-2.958333,1
5603,0.03466797,0.9960937999999999,0.020996090000000002,-2.502441,-1.708984,-0.42724609999999996,91.4502,1.796265,48.88916,17.025,0.6416666999999999,0.075,1
5863,0.02734375,0.9995117,0.03125,0.3662109,-0.42724609999999996,-1.159668,91.31287,1.7028809999999999,48.96057,16.975,0.625,0.2,1
6093,0.044921880000000004,1.003418,0.03271484,1.159668,-0.12207029999999999,-1.525879,91.38428,1.73584,48.83423,17.06667,0.3083333,-0.1333333,1
6313,0.03076172,0.9921875,0.04589844,-1.342773,-2.13623,-1.037598,91.27441,1.8402100000000001,48.72986,17.01667,0.5,-0.1,1
6580,0.024902340000000002,1.000977,0.03662109,2.258301,0.0,-1.525879,91.18652,1.862183,48.54309,17.91667,-40.325,-3.175,1
6853,0.02294922,1.000977,0.03369141,1.037598,0.1831055,-0.24414059999999999,91.47217,1.950073,48.6145,17.075,0.4333333,-0.04166667,1
7103,0.02832031,0.9980469,0.03222656,-1.281738,0.12207029999999999,-0.9765625,91.32385,1.807251,48.80127,17.69167,-40.34167,-2.983333,1
7393,0.03173828,0.9990234,0.03369141,-1.464844,-1.403809,-0.7324219,91.09314,1.752319,48.92212,17.13333,0.45,-0.075,1
7733,0.03515625,0.9921875,0.04199219,-0.9765625,-0.793457,0.0,91.0437,1.8182369999999999,49.16931,16.98333,0.7000000000000001,-0.008333334000000001,1
8003,0.03417969,1.000977,0.04199219,0.3051758,-0.5493163999999999,-0.6713867,90.93384,1.829224,48.97705,17.59167,-40.24166,-3.058333,1
8273,0.03613281,0.9931641,0.03955078,0.6713867,-0.3051758,-0.9155272999999999,90.99976,1.8182369999999999,48.900150000000004,17.06667,0.5833332999999999,-0.03333333,1
8533,0.03125,1.0,0.03613281,-0.06103516,-0.3051758,-0.8544921999999999,91.06567,1.763306,48.7738,17.2,0.5916667,-0.1166667,1
8833,0.01416016,1.002441,0.03662109,-4.821777,-3.601074,-0.6713867,90.65918,1.642456,48.18054,16.75833,0.9166667,0.08333334,1
9203,0.02050781,0.9946288999999999,0.04833984,-0.9765625,-3.051758,-1.8310549999999999,90.79651,2.04895,47.83447,18.08333,-40.50834,-3.475,1
9473,0.01904297,0.9956054999999999,0.041015630000000004,0.6713867,1.403809,-0.4882813,90.9613,2.087402,47.93335,17.09167,0.6666667,0.1166667,1
9713,0.04394531,0.9946288999999999,0.02148438,1.464844,0.1831055,-0.9765625,91.29089,1.994019,47.78503,17.925,-40.375,-2.908333,1
9953,0.03076172,0.9931641,0.02734375,4.02832,0.793457,-0.6103516,91.65894,2.015991,48.1366,17.15,0.2833333,0.36666669999999996,1
10193,0.03955078,1.007324,0.01416016,1.342773,-1.159668,-0.24414059999999999,92.29065,1.884155,47.99377,17.75,-40.1,-1.941667,1
10423,0.01757813,0.9941405999999999,0.02197266,1.098633,-1.89209,-1.037598,92.26318,1.7303469999999999,47.85095,17.125,0.1833333,0.01666667,1
10720,0.01904297,0.9995117,0.015625,-1.159668,-0.42724609999999996,-1.281738,92.23572,1.741333,47.68066,17.89167,-40.16667,-2.191667,1
11023,0.04589844,0.9941405999999999,0.03076172,-0.793457,-1.586914,-1.403809,91.82922,1.63147,47.10938,16.93333,0.4166667,0.075,1
11333,0.02197266,1.001465,0.008789063,-0.24414059999999999,0.6103516,-2.075195,91.8457,2.109375,46.93909,18.03333,-39.75,-2.408333,1
11623,0.03466797,1.003906,0.01318359,0.0,0.8544921999999999,0.42724609999999996,91.88416,1.994019,47.08191,16.99167,0.3333333,-0.06666667,1
12983,0.03710938,1.008789,0.01220703,1.525879,1.403809,0.42724609999999996,91.80176,1.983032,46.78528,17.05,0.1,-0.15,1
13223,0.03076172,1.004395,0.01464844,0.5493163999999999,0.9155272999999999,-0.8544921999999999,91.67542,1.972046,46.92261,17.90833,-39.79167,-2.316667,1
13513,0.01757813,0.9995117,0.01464844,1.220703,-0.24414059999999999,-0.6103516,91.79077,2.054443,47.10938,17.04167,0.25,0.2,1
13773,0.03369141,0.9990234,0.004394531,-1.281738,1.89209,-0.793457,91.96655,2.120361,46.99951,17.825,-40.175,-1.85,1
14043,0.03076172,0.9916992,0.03076172,-2.075195,4.02832,-0.8544921999999999,91.4447,2.120361,47.5708,17.775,-40.23333,-2.141667,1
14350,0.03369141,1.009277,0.017089840000000002,0.42724609999999996,0.6713867,-0.793457,91.35681,1.972046,48.06519,17.53333,-40.26667,-1.725,1
14643,0.02539063,1.004395,0.024902340000000002,-4.516602,-1.342773,-0.9765625,91.14258,2.076416,47.75208,17.71667,-40.40833,-2.108333,1
14993,0.004394531,1.004395,0.02001953,-4.638672,-1.342773,0.12207029999999999,90.70862,1.911621,47.65869,17.1,0.8083332999999999,-0.24166669999999998,1
15233,0.022460940000000002,1.003906,0.03710938,0.7324219,0.0,-1.342773,90.25818,2.290649,46.81274,18.04167,-40.375,-3.25,1
15463,0.01025391,0.9980469,0.04736328,-1.89209,3.845215,0.9765625,90.35706,2.422485,47.0874,17.03333,0.7333333,0.09166667,1
15733,0.03222656,1.004883,0.04052734,0.5493163999999999,-0.8544921999999999,0.06103516,90.49438,2.164307,47.23572,16.95,0.7083332999999999,-0.025,1
15953,0.028808590000000002,1.000977,0.03125,1.159668,-1.403809,-1.098633,90.68665,2.136841,47.03796,17.04167,0.5083333,0.1416667,1
16173,0.022460940000000002,0.9951171999999999,0.03808594,3.90625,-1.525879,-0.6713867,91.10962,2.2796629999999998,46.6095,17.94167,-40.275,-2.641667,1
16413,0.020996090000000002,1.012695,-0.00390625,1.586914,0.4882813,-0.6103516,91.73035,2.301636,46.23047,17.09167,0.275,0.05,1
16663,0.02441406,0.9995117,0.01660156,-0.12207029999999999,-0.12207029999999999,-1.037598,91.72485,2.290649,46.12061,17.11667,0.2833333,-0.05833333,1
16960,0.020996090000000002,1.008301,0.015136720000000001,-2.13623,-0.6713867,-0.24414059999999999,91.51611,2.235718,45.92834,18.125,-40.125,-2.658333,1
17263,0.028808590000000002,0.9877929999999999,0.03125,-1.7700200000000001,0.42724609999999996,-0.9765625,90.84045,2.026978,45.8844,16.89167,0.9833333999999999,-0.15,1
17603,0.01806641,1.008789,0.03710938,2.990723,-1.403809,-0.1831055,90.70862,2.103882,46.4447,17.03333,0.47500000000000003,0.2083333,1
17873,0.03466797,1.003418,0.02832031,0.24414059999999999,0.12207029999999999,-1.7700200000000001,91.17554,1.999512,46.42822,17.725,-40.20833,-2.55,1
18143,0.03515625,0.9970703,0.022460940000000002,0.12207029999999999,0.3051758,-1.098633,91.42273,2.15332,46.23047,17.075,0.44166669999999997,-0.2333333,1
18393,0.02685547,1.009277,0.009765625,-1.159668,-3.4790039999999998,-1.098633,91.4447,2.224731,46.14258,17.925,-39.86666,-2.483333,1
18703,0.008789063,1.003418,0.02929688,2.197266,-2.258301,-0.8544921999999999,91.33484,2.312622,45.76904,16.9,0.325,0.3083333,1
19044,0.03710938,0.9931641,0.02734375,0.42724609999999996,1.525879,-1.281738,91.70288,2.076416,45.933840000000004,17.18333,0.2583333,0.225,1
19343,0.04003906,1.003418,0.005371094000000001,-0.3051758,-0.9765625,-1.89209,91.73035,2.219238,45.66467,17.10833,0.31666669999999997,-0.06666667,1
19570,0.01611328,0.9936522999999999,0.0234375,-1.8310549999999999,0.42724609999999996,-0.6713867,91.51062,2.345581,45.70862,18.00833,-40.10833,-2.366667,1
19823,0.03613281,1.007324,0.02392578,-0.3662109,-2.075195,-1.098633,91.38977,2.39502,45.54932,16.90833,0.35833329999999997,-0.1083333,1
20063,0.03808594,1.00293,0.01367188,-2.075195,0.0,-3.234863,91.17004,2.537842,45.35156,18.25,-40.36666,-2.683333,1
20293,0.03271484,1.004883,0.02587891,1.464844,2.01416,1.586914,91.27441,2.466431,45.52185,17.08333,0.2583333,-0.3833333,1
20573,0.0390625,1.000488,0.03222656,-2.929688,-3.417969,-1.7700200000000001,90.86792,2.296143,45.3241,16.775,0.7833333,-0.2333333,1
20783,0.04150391,0.9985352,0.04736328,3.2958979999999998,-3.112793,-1.8310549999999999,90.67566,2.48291,45.03296,17.075,0.25,1.066667,1
21013,0.052734380000000004,0.9873046999999999,0.0234375,2.258301,5.187988,0.06103516,91.56006000000001,3.251953,43.797,17.26667,-0.03333333,-0.06666667,1
21280,0.04785156,1.00293,0.01660156,-2.319336,0.7324219,0.06103516,91.38977,2.922363,44.40125,18.6,-39.69167,-2.891667,1
21563,0.026367190000000002,1.0,0.03271484,-2.563477,-0.6103516,-0.7324219,90.95581,2.746582,44.66492,17.24167,0.55,-0.30000000000000004,1
21833,0.017089840000000002,1.004395,0.046875,-1.159668,-0.793457,-2.01416,90.2417,2.768555,44.24744,16.93333,0.8833333,0.1916667,1
22103,0.007324219000000001,1.001465,0.04052734,1.586914,1.159668,-0.12207029999999999,90.29663,2.856445,44.47266,18.54167,-39.8,-3.716667,1
22363,0.01953125,1.008789,0.03271484,0.5493163999999999,-0.8544921999999999,-0.3051758,90.58228,2.741089,44.29138,17.19167,0.4583333,0.1333333,1
22623,0.01416016,1.001953,0.03076172,1.098633,-0.5493163999999999,-0.8544921999999999,90.75806,2.653198,44.29688,18.5,-39.85,-3.483333,1
22913,0.02783203,0.9956054999999999,0.03222656,-0.5493163999999999,2.380371,-1.098633,90.95032,2.6202389999999998,44.47266,17.19167,0.5916667,0.008333334000000001,1
23263,0.01660156,0.9960937999999999,0.03466797,1.281738,0.7324219,0.3662109,91.13159,2.548828,44.84619,16.93333,0.5583332999999999,0.125,1
23533,0.02148438,0.9970703,0.02685547,1.037598,-1.403809,-0.7324219,91.4447,2.312622,44.9176,17.1,0.5166666999999999,0.275,1
23903,0.02783203,1.006836,0.02148438,-1.525879,-2.258301,-0.8544921999999999,91.64246,2.268677,44.69788,17.89167,-40.08333,-2.525,1
24173,0.02929688,0.9995117,0.02148438,0.9155272999999999,-2.13623,-1.464844,91.58203,2.400513,44.28589,17.0,0.4,-0.025,1
24413,0.03808594,0.9951171999999999,0.03222656,-0.1831055,-3.173828,-1.7700200000000001,91.46667,2.438965,43.83545,16.99167,0.5333333,-0.025,1
24623,0.02587891,0.9975586,0.02050781,-0.24414059999999999,-3.2958979999999998,-0.7324219,91.57654,2.504883,43.56079,18.34167,-40.04167,-2.891667,1
24853,0.02587891,0.9975586,0.02587891,-0.3662109,-0.3662109,0.06103516,91.62048,2.411499,43.56628,17.075,0.425,-0.01666667,1
25103,0.024902340000000002,1.001465,0.02294922,0.7324219,0.7324219,-0.9765625,91.71936,2.307129,43.89587,18.0,-40.025,-2.8083329999999997,1
25363,0.0234375,1.0,0.02392578,-0.24414059999999999,0.6713867,-1.098633,91.77429,2.351074,43.99475,17.06667,0.4333333,0.0,1
25643,0.02441406,0.9897461,0.03662109,0.5493163999999999,1.464844,-1.159668,91.73035,2.389526,44.00024,17.98333,-40.03333,-2.541667,1
25893,0.04638672,1.001465,0.020996090000000002,1.281738,-1.8310549999999999,-1.525879,91.64246,2.318115,43.91235,17.10833,0.2333333,0.08333334,1
26123,0.03222656,1.00293,0.02001953,0.6713867,-0.8544921999999999,-1.159668,91.8457,2.455444,43.65967,18.04167,-40.06667,-2.691667,1
26413,0.01660156,0.9921875,0.0234375,-1.098633,-2.868652,0.4882813,91.56555,2.296143,43.43994,16.90833,0.7833333,0.04166667,1
26663,0.02197266,0.9907227,0.02685547,1.525879,-2.929688,-1.708984,91.27441,2.290649,42.73132,16.925,0.5916667,0.1916667,1
26933,0.009277344,1.004395,0.02587891,1.953125,3.173828,0.4882813,91.49414,2.444458,42.76428,18.35,-40.15833,-3.241667,1
27203,0.03320313,1.000488,0.02148438,1.586914,1.342773,1.159668,91.55457,2.120361,43.17078,17.025,0.4166667,0.17500000000000002,1
27483,0.02978516,1.012207,0.01855469,-3.4790039999999998,-4.333496,-2.685547,91.65344,2.032471,43.12683,17.11667,0.3833333,-0.06666667,1
27773,0.03125,1.0,0.03173828,-0.1831055,0.5493163999999999,-1.037598,91.35132,2.312622,43.08838,17.00833,0.6666667,0.1833333,1
28133,0.01806641,0.9985352,0.04150391,2.685547,2.197266,1.159668,91.88416,2.164307,43.43994,17.89167,-40.35,-2.45,1
28413,0.03955078,1.001953,0.01416016,0.4882813,-0.9765625,-1.281738,92.1698,2.037964,43.38501,16.94167,0.275,0.09166667,1
28653,0.03417969,1.004883,0.01171875,-0.7324219,0.24414059999999999,-0.4882813,92.13135,2.032471,43.29163,17.06667,0.35833329999999997,-0.2333333,1
29843,0.03808594,0.9970703,0.03417969,-0.6713867,-2.01416,-0.6103516,90.99976,2.5927729999999998,43.32458,16.98333,0.7333333,-0.2166667,1
30043,0.01757813,0.9926758,0.04199219,0.42724609999999996,-0.4882813,-0.5493163999999999,90.92285,2.6202389999999998,43.07739,16.98333,0.7166667,0.1666667,1
30273,0.017089840000000002,1.002441,0.03613281,1.098633,-0.6103516,-0.8544921999999999,91.06018,2.686157,42.96204,18.425,-40.15,-3.083333,1
30513,0.015136720000000001,1.002441,0.02392578,-0.3662109,2.01416,-1.037598,91.21948,2.730103,42.84668,17.20833,0.4666667,0.1083333,1
30763,0.02294922,1.01709,0.01904297,3.173828,-0.793457,-0.9155272999999999,91.62598,2.680664,42.79724,17.06667,0.2666667,0.025,1
31060,0.02050781,0.9990234,0.02294922,-0.42724609999999996,-1.281738,-0.24414059999999999,91.7688,2.598267,42.72583,18.325,-39.94167,-2.766667,1
31353,0.02294922,0.9853516,0.05761719,0.6103516,-1.403809,-0.7324219,91.42822,2.488403,42.52808,17.05833,0.6833332999999999,0.3083333,1
31583,0.01220703,1.002441,0.03125,0.3662109,1.159668,-1.953125,91.62598,2.466431,42.45117,17.03333,0.48333329999999997,0.1416667,1
31883,0.028808590000000002,1.001465,0.01757813,1.6479489999999999,-0.6713867,-0.4882813,91.75781,2.466431,42.41272,18.025,-40.21667,-2.533333,1
32173,0.026367190000000002,1.003418,0.01318359,0.7324219,-0.1831055,-0.9155272999999999,92.29065,2.296143,42.49512,17.225,0.1083333,0.2666667,1
32493,0.017089840000000002,1.001465,0.0,0.5493163999999999,1.159668,-0.5493163999999999,92.68616,2.2796629999999998,42.55554,17.95833,-39.86666,-1.533333,1
32783,0.02978516,0.9985352,0.006347656,0.7324219,0.7324219,-0.3662109,92.74109,2.158813,42.89612,17.69167,-40.08333,-1.491667,1
33063,0.03125,0.9956054999999999,0.0034179690000000003,0.0,-1.464844,-0.7324219,92.6532,2.15332,42.87964,17.125,0.06666667,-0.04166667,1
33323,0.01025391,0.9790038999999999,0.02929688,1.281738,-2.868652,0.7324219,92.66968,2.147827,42.31384,17.05,-0.08333334,-0.1416667,1
33653,0.02392578,1.013184,-0.01220703,-1.281738,2.01416,-1.403809,92.62024,2.559814,41.73157,17.05833,-0.05,-0.6416666999999999,1
33863,0.001953125,0.9951171999999999,0.03320313,-5.249023,-4.089355,-2.807617,91.99951,2.60376,41.85791,16.84167,0.1416667,0.1083333,1
34063,-0.005859375,0.9985352,0.01953125,1.586914,2.563477,-1.098633,91.77979,2.559814,42.20398,17.06667,0.31666669999999997,-0.3083333,1
34283,0.04296875,0.9980469,0.002929688,-1.159668,-0.8544921999999999,-0.12207029999999999,91.66992,2.664185,41.77551,17.06667,0.48333329999999997,0.01666667,1
34503,0.03271484,1.005371,0.004394531,0.3662109,-0.7324219,-1.098633,91.61499,2.70813,42.09961,18.275,-39.98333,-2.183333,1
34733,0.04296875,0.9790038999999999,0.03125,-0.9155272999999999,-1.464844,-0.7324219,91.4502,2.724609,42.19849,17.2,0.30000000000000004,-0.05,1
34983,0.026367190000000002,1.0,0.02539063,1.464844,-0.5493163999999999,-0.7324219,91.57654,2.614746,42.34131,18.00833,-39.99166,-2.016667,1
35223,0.02441406,1.007324,0.01611328,0.9765625,-1.220703,-1.281738,91.76331,2.598267,42.24792,17.175,0.1166667,-0.2,1
35500,0.015136720000000001,0.9985352,0.01904297,-1.525879,-0.42724609999999996,-0.42724609999999996,91.63696,2.636719,42.13257,18.16667,-39.96667,-2.3,1
35803,0.020996090000000002,0.9980469,0.01660156,-0.42724609999999996,-1.586914,-0.8544921999999999,91.41724,2.6696779999999998,41.95679,16.93333,0.5583332999999999,0.15833329999999998,1
36113,0.01806641,0.9995117,0.01855469,0.1831055,-1.586914,-1.159668,91.41174,2.680664,41.63269,18.35,-39.98333,-2.475,1
36403,0.026367190000000002,1.000488,0.006835938000000001,0.7324219,-0.06103516,-1.342773,91.66443,2.752075,41.41846,17.06667,0.4166667,0.08333334,1
36713,0.03564453,0.9926758,0.017089840000000002,0.4882813,-0.42724609999999996,-0.4882813,91.76331,2.642212,41.3855,18.14167,-40.08333,-2.375,1
37013,0.0234375,1.003906,0.00390625,-1.8310549999999999,2.990723,-1.037598,91.80725,2.532349,41.23718,18.16667,-39.93333,-2.133333,1
37300,0.017089840000000002,1.000977,0.015136720000000001,0.6103516,-2.075195,-1.098633,91.70837,2.565308,40.95703,18.28333,-39.79167,-2.591667,1
37600,0.01757813,0.9931641,0.02441406,0.6103516,-2.563477,-1.037598,91.81274,2.565308,41.19873,18.21667,-39.725,-2.341667,1
37933,0.001464844,0.9931641,0.02197266,-0.4882813,-5.737305,-0.9765625,91.73584,2.60376,41.25916,17.09167,0.1833333,0.1333333,1
38173,0.0390625,1.009277,0.001464844,-0.7324219,1.220703,-1.098633,91.75781,2.576294,40.75378,16.95,0.3333333,-0.05,1
38393,0.02685547,0.9931641,0.01611328,3.112793,-2.563477,-0.24414059999999999,91.70837,2.664185,40.61096,17.28333,-0.125,0.1833333,1
38594,0.01025391,0.9902344,0.03857422,1.281738,-0.06103516,0.3051758,91.58203,2.713623,40.52307,18.31667,-39.80833,-2.308333,1
38863,0.001464844,0.9921875,0.01904297,-0.6713867,2.319336,-0.1831055,91.52161,2.6696779999999998,40.53406,17.50833,0.275,-0.1666667,1
39103,0.03662109,1.019043,-0.02001953,-2.746582,-0.7324219,-0.6713867,91.27441,2.471924,40.49011,16.90833,0.6083333,-0.8833333,1
39333,0.06494141,0.9995117,0.01953125,1.89209,-0.6103516,-0.1831055,90.53284,2.087402,40.67139,17.71667,-40.375,-2.85,1
39583,0.006347656,0.980957,0.041015630000000004,0.42724609999999996,-1.7700200000000001,-2.441406,90.61523,2.230225,40.98999,17.08333,0.48333329999999997,0.375,1
39820,0.0234375,1.005859,0.03271484,2.563477,-6.652832,-2.685547,90.86792,2.345581,40.71533,17.91667,-40.29167,-2.35,1
40093,0.02587891,1.006836,0.0004882813,-2.441406,-1.098633,-1.464844,90.8844,2.444458,40.3418,16.6,0.9916666999999999,0.0,1
40343,0.01806641,0.9921875,0.01855469,5.065918,-0.42724609999999996,-0.8544921999999999,90.82397,2.493896,40.1001,18.08333,-40.05,-2.475,1
40633,0.020996090000000002,1.015137,-0.020996090000000002,4.211426,0.3662109,-0.5493163999999999,92.43896,2.433472,40.08911,17.14167,-0.47500000000000003,0.1,1
40943,0.026367190000000002,1.001953,-0.01855469,-3.540039,-0.12207029999999999,-1.464844,92.2467,2.235718,40.19348,17.85833,-39.875,-1.625,1
41243,0.02001953,1.001465,0.005859375,-1.89209,1.708984,-1.403809,91.35132,2.642212,40.29236,18.06667,-40.06667,-1.95,1
41523,0.02685547,1.0,0.01025391,0.9765625,1.8310549999999999,-3.112793,91.17554,2.790527,40.50659,16.89167,0.2833333,0.3416667,1
41773,0.02783203,1.0,-0.00390625,0.4882813,0.6713867,-0.9765625,91.57104,2.735596,40.66589,17.09167,-0.1,0.008333334000000001,1
42063,0.02832031,1.003418,-0.001464844,-0.6713867,-1.708984,-0.9765625,91.64246,2.631226,40.578,17.03333,0.008333334000000001,-0.125,1
42403,0.02539063,1.000488,0.009277344,-0.8544921999999999,-1.037598,-0.42724609999999996,91.45569,2.565308,40.22095,17.075,0.15833329999999998,-0.1416667,1
42623,0.026367190000000002,1.00293,0.01171875,-1.342773,-0.8544921999999999,-0.8544921999999999,91.26892,2.548828,40.04517,17.125,0.2,-0.1166667,1
42833,0.02734375,1.001465,0.01660156,0.24414059999999999,0.12207029999999999,-0.42724609999999996,91.09314,2.515869,39.94629,18.025,-40.25,-2.341667,1
43063,0.03076172,1.001465,0.017089840000000002,0.6713867,-0.793457,-0.3051758,91.24695,2.433472,40.03967,17.025,0.2916667,0.05833333,1
43333,0.02783203,0.9990234,0.01757813,0.06103516,0.8544921999999999,-1.220703,91.35132,2.438965,40.25391,17.05,0.2083333,0.01666667,1
43563,0.026367190000000002,0.9970703,0.02050781,-2.258301,0.12207029999999999,0.0,91.203,2.433472,40.41321,17.775,-40.3,-2.333333,1
43813,0.030273440000000002,0.996582,0.0234375,2.01416,-0.9765625,-0.3662109,91.07117,2.290649,40.578,17.05833,0.31666669999999997,0.3083333,1
44050,0.03417969,1.005859,0.00390625,1.098633,-0.8544921999999999,-1.098633,91.59302,2.25769,40.52856,17.70833,-40.225,-1.641667,1
44323,0.03564453,1.0,0.01611328,0.24414059999999999,-1.281738,-0.9765625,91.64795,2.27417,40.45715,16.975,0.17500000000000002,0.0,1
44560,0.02832031,1.0,0.01269531,0.4882813,-0.7324219,-1.098633,91.74133,2.340088,40.36926,17.53333,-40.20833,-1.75,1
44873,0.02929688,1.002441,0.005371094000000001,-0.8544921999999999,-1.159668,-0.7324219,91.88965,2.411499,40.24841,17.11667,0.1333333,0.1083333,1
45173,0.030273440000000002,0.996582,0.008789063,-0.12207029999999999,-0.793457,-0.7324219,91.97205,2.39502,40.05615,17.78333,-39.91667,-1.95,1
46463,0.03271484,1.001953,0.005859375,-0.5493163999999999,0.06103516,-1.342773,92.25769,2.367554,39.74304,17.83333,-39.925,-1.808333,1
46763,0.030273440000000002,1.000977,0.008300781,-0.12207029999999999,-0.6713867,-0.8544921999999999,92.19177,2.400513,39.78699,17.06667,0.1666667,-0.05833333,1
47023,0.030273440000000002,1.013184,-0.009765625,2.01416,-2.319336,-0.8544921999999999,92.24121,2.400513,39.78699,16.94167,0.2833333,0.6583333,1
47293,0.04199219,1.016113,-0.008300781,1.220703,-0.6713867,-0.1831055,92.26868,2.422485,38.96851,16.85833,0.44166669999999997,0.3333333,1
47663,0.02685547,1.001953,0.05175781,0.5493163999999999,-1.7700200000000001,-0.6103516,91.82373,2.37854,39.06738,17.84167,-40.08333,-2.3,1
47903,0.0390625,1.012207,-0.01269531,2.197266,0.0,-0.06103516,91.92261,2.37854,38.84766,17.1,0.05833333,0.1833333,1
48173,0.03613281,1.016602,0.009765625,-0.12207029999999999,-1.281738,-0.793457,92.14783,2.444458,38.85864,16.50833,0.925,0.2166667,1
48383,0.030273440000000002,1.022461,-0.02832031,-1.403809,-0.793457,-0.12207029999999999,92.23022,2.60376,39.12231,17.39167,-0.4166667,-0.1083333,1
48593,0.02734375,0.9892578,0.03662109,1.8310549999999999,0.6713867,-0.6103516,92.03247,2.609253,38.85864,18.06667,-39.83333,-1.825,1
48833,0.03564453,1.029785,-0.04345703,-0.6103516,-2.380371,-1.708984,92.13135,2.6696779999999998,38.69385,16.88333,0.1916667,-0.5166666999999999,1
49083,0.02441406,1.006348,-0.024902340000000002,-3.051758,-2.502441,-1.8310549999999999,91.63147,2.872925,38.36975,18.29167,-39.64167,-2.208333,1
49333,0.015625,1.013672,0.02978516,0.7324219,-1.6479489999999999,-1.403809,91.46118,2.944336,38.4137,16.79167,0.1166667,0.3916667,1
49600,-0.05419922,0.9624022999999999,0.052734380000000004,-0.12207029999999999,-4.150391,-0.9155272999999999,91.43921,2.5927729999999998,39.2981,18.08333,-40.23333,-1.891667,1
49893,0.02783203,1.061523,-0.03808594,-7.263184,-3.051758,1.525879,91.6095,2.735596,38.36975,18.14167,-39.975,-2.083333,1
50153,0.02685547,0.996582,0.06689453000000001,-6.530762,0.6103516,-0.06103516,89.77478,2.6477049999999998,38.22693,16.825,0.9416667,-0.5750000000000001,1
50423,0.03759766,1.004883,0.056640630000000004,1.098633,-3.234863,-1.220703,88.9563,2.449951,38.33679,17.95,-40.825,-3.716667,1
50693,0.02978516,0.9931641,0.03662109,3.540039,2.563477,-1.281738,89.73633,2.493896,38.02917,18.03333,-40.65,-3.45,1
50983,0.02832031,0.9995117,0.03076172,3.417969,-1.8310549999999999,-1.708984,90.36255,2.6696779999999998,38.2489,16.9,0.3833333,0.2166667,1
51243,0.015136720000000001,1.00293,0.01171875,0.6713867,-0.1831055,-0.6713867,91.08215,2.768555,38.23242,18.1,-40.06667,-2.391667,1
51523,0.011230470000000001,1.004395,0.005371094000000001,-0.7324219,2.197266,-1.098633,91.32935,2.834473,38.68286,16.81667,0.4583333,0.0,1
51853,0.02832031,1.000488,0.002441406,0.3662109,0.9155272999999999,-1.159668,91.54907,2.807007,38.4906,17.10833,0.08333334,-0.075,1
52163,0.024902340000000002,0.9975586,0.0,-0.42724609999999996,-1.281738,-0.42724609999999996,91.65344,2.702637,38.67188,17.03333,0.125,0.05,1
52393,0.02978516,0.9975586,0.01757813,0.12207029999999999,-0.06103516,-0.793457,91.63147,2.702637,38.5675,17.1,0.1416667,-0.04166667,1
52613,0.01953125,1.003906,0.0078125,0.06103516,-1.6479489999999999,-1.220703,91.65894,2.752075,38.54004,17.03333,0.2083333,0.04166667,1
52823,0.0234375,1.000977,0.008300781,0.8544921999999999,-1.037598,-1.037598,91.74683,2.856445,38.24341,18.15833,-39.73333,-1.975,1
53073,0.02539063,0.996582,0.009277344,0.1831055,-1.220703,-0.9155272999999999,91.79626,2.867432,38.14453,17.25833,0.1166667,0.01666667,1
53303,0.02441406,1.001465,0.011230470000000001,-0.7324219,0.42724609999999996,-0.1831055,91.87866,2.801514,38.07312,18.19167,-40.15,-2.133333,1
53553,0.02685547,1.00293,0.01220703,1.281738,-2.258301,-1.159668,91.95007,2.8125,37.84241,16.975,0.2083333,0.275,1
53823,0.04199219,1.003906,0.0034179690000000003,1.7700200000000001,1.403809,-0.4882813,92.16431,2.686157,37.79297,17.05833,0.25,0.05,1
54040,0.028808590000000002,0.9980469,0.0034179690000000003,0.5493163999999999,0.9155272999999999,-0.6103516,92.40051,2.576294,38.39722,17.85,-40.34167,-1.491667,1
54323,0.02929688,1.007324,-0.005371094000000001,-0.24414059999999999,-1.159668,-1.037598,92.55432,2.581787,38.4137,17.88333,-40.0,-1.158333,1
54623,0.02441406,1.000488,0.00390625,-0.9765625,-1.6479489999999999,-1.525879,92.43896,2.735596,38.34229,16.98333,0.1083333,0.025,1
54863,0.02832031,1.004395,-0.01025391,1.89209,-1.037598,-1.220703,92.58728,2.834473,38.08411,16.91667,-0.3333333,0.1166667,1
55133,0.02392578,0.9775391,-0.002441406,0.793457,1.6479489999999999,0.4882813,92.76306,2.680664,37.94678,17.96667,-40.3,-1.033333,1
55433,0.022460940000000002,1.052246,-0.06396484,-4.455566,-2.502441,5.065918,93.25745,1.8182369999999999,38.32581,17.9,-0.17500000000000002,-3.433333,1
55693,0.06689453000000001,1.062988,-0.06152344,-108.3374,5.432129,12.63428,80.16724,-0.6976317999999999,38.43018,18.35833,5.483333,-13.48333,1
55963,0.1450195,0.8657227,0.730957,-24.4751,-1.953125,4.272461,58.4198,-0.5218505999999999,39.71008,9.925,8.675,4.6,1
56283,0.11621089999999999,0.7724609,0.2104492,78.73535,92.28516,8.850098,71.62537,0.8404541,50.90515,15.85,2.566667,6.916667,1
56493,-0.203125,0.9199219,0.1679688,9.216309,73.48633,17.21191,80.50781,2.526855,72.36694,15.4,0.675,0.8333332999999999,1
56713,-0.1298828,0.9418945,-0.017089840000000002,14.16016,22.58301,30.39551,81.77673,-0.9173583999999999,82.69958,19.525,3.183333,6.208333,1
56933,0.09082031,0.8662109,0.15820309999999999,28.32031,70.92285,31.18896,89.26392,-3.647461,95.69092,-8.958333,-41.76667,12.13333,1
57173,0.09472656,0.8808594,-0.01611328,0.8544921999999999,58.89893,-0.4882813,88.02795,-7.998047,111.7749,15.66667,-0.775,1.95,1
57433,0.06152344,0.9174804999999999,-0.2319336,21.48438,1.098633,-8.728026999999999,89.09363,-5.465698,119.328,20.39167,7.083333,-6.4,1
57663,-0.2890625,0.8374022999999999,0.09228516,-9.094238,-14.77051,-25.81787,90.31311,-3.949585,116.2354,-17.05,-41.35833,11.64167,1
57913,-0.1459961,1.080078,-0.14697269999999998,1.464844,-49.25537,28.32031,90.10986,-4.954834,104.9744,16.29167,-1.9916669999999999,0.9166667,1
58150,-0.1020508,1.013672,0.05957031,-2.075195,48.15674,17.51709,94.33411,-1.450195,97.67395,-9.616667,-40.475,14.31667,1
58423,-0.03173828,0.8930663999999999,-0.03369141,-18.85986,104.5532,13.61084,91.88416,-8.063965,110.2917,16.1,-0.49166669999999996,-3.158333,1
58673,0.02441406,1.745117,0.2797852,36.01074,20.81299,15.93018,93.19702,-7.097168,121.7999,-24.65,-39.96667,10.89167,1
58963,-0.2070313,0.7631836,-0.01953125,-14.34326,-72.44873,-18.79883,91.91162,-5.476685,117.4658,15.36667,-3.408333,-0.1,1
59273,0.1679688,1.4448239999999999,0.3232422,35.27832,21.60645,-32.04346,94.19128,-4.971313,115.4938,-17.79167,-42.26667,12.59167,1
59573,-0.05126953,0.7773437999999999,0.04150391,-8.422852,64.33105,8.605957,91.13708,-8.756104,127.3206,-26.33333,-41.80833,8.858334,1
59843,-0.03759766,1.014648,-0.26269529999999996,0.6103516,-2.13623,-13.61084,91.3623,-7.207031,130.8746,28.88333,3.608333,-3.591667,1
60103,-0.07421875,0.8505859,0.01806641,10.13184,-18.31055,-22.2168,93.41675,-6.965332,127.9358,13.70833,-0.5666667,-0.675,1
60413,-0.1020508,1.05957,-0.05175781,19.16504,0.6713867,5.7983400000000005,93.51563,-6.59729,123.4863,18.49167,3.083333,-1.275,1
60753,0.24853519999999998,0.8452147999999999,-0.05810547,-10.19287,33.26416,16.78467,94.87793,-6.959839,125.2441,13.46667,-1.916667,0.9,1
60963,0.1455078,1.07666,-0.005371094000000001,-8.361816,3.2958979999999998,-8.911133,93.38928,-7.218018,130.4077,17.65833,-3.625,3.5,1
61173,0.11669919999999999,0.8974609,0.001464844,-8.117676,-5.249023,-35.46143,94.76257,-8.876953,127.738,-23.95833,-41.15833,12.96667,1
61403,0.1640625,0.8320312999999999,-0.137207,-7.202148,-35.5835,11.04736,91.57654,-5.097656,123.7665,18.91667,-1.841667,-1.175,1
61673,0.02197266,1.433594,0.1967773,35.70557,-0.12207029999999999,-15.50293,93.06519,-6.344604,122.6953,17.68333,2.7,-2.266667,1
62863,0.3671875,1.510254,0.2802734,28.13721,3.967285,-52.91748,94.64722,-5.83374,127.8479,20.475,-0.44166669999999997,-0.1333333,1
63083,0.3364258,0.887207,0.01855469,4.943848,15.44189,25.5127,94.49341,-6.102905,130.3528,13.91667,0.1666667,-0.7583333,1
63333,0.02978516,0.9863280999999999,-0.2314453,13.5498,4.211426,0.7324219,92.005,-7.756348,138.8232,22.83333,5.2,-3.816667,1
63580,-0.19433589999999998,0.9047852,-0.00390625,-5.004883,-22.76611,-20.38574,94.55383,-7.443237,134.566,-25.25833,-39.66667,14.225,1
63883,-0.07373047,0.9814453,-0.22216799999999998,-4.821777,-16.90674,8.789063,93.58704,-6.383057,126.7987,18.68333,-2.725,0.9333332999999999,1
64133,-0.06201172,1.038086,-0.03564453,-16.29639,9.338379,15.13672,96.1084,-3.268433,128.54,13.55,0.1083333,-2.633333,1
64403,0.2197266,0.9614258,-0.04199219,0.24414059999999999,16.8457,-6.774902,91.27441,-6.795044,135.4395,-26.05,-40.69167,11.13333,1
64673,0.23681639999999998,1.120605,0.1577148,3.662109,-23.80371,-3.112793,94.27917,-10.22827,133.3026,14.875,1.283333,-0.4666667,1
64923,0.05175781,0.7363280999999999,-0.10107419999999999,-17.08984,-19.34814,9.887695,91.70288,-5.603027,126.0681,-21.54167,-41.75834,13.0,1
65213,-0.2905273,1.156738,-0.02783203,-3.967285,11.04736,4.333496,95.00427,-2.889404,126.2714,-20.28333,-40.925,14.43333,1
65500,0.1928711,0.8789062999999999,-0.09570313,-9.94873,19.104,-21.91162,93.06519,-7.695923,133.4729,-26.36667,-40.69167,11.55833,1
65800,0.004882813000000001,0.9536133,0.09228516,1.586914,-11.65771,-22.70508,94.00452,-9.415283,131.0669,-25.89167,-39.56667,13.46667,1
66143,0.1640625,1.176758,-0.21337889999999998,8.789063,-3.845215,-8.056641,93.02673,-6.849976,123.75,25.55,4.291667,4.475,1
66363,-0.21337889999999998,1.206055,0.01904297,-0.9155272999999999,11.41357,-6.103516,95.74585,-4.125366,125.6506,14.025,1.5,-1.658333,1
66583,0.1030273,0.809082,0.03710938,-3.78418,57.92236,10.31494,92.48291,-8.404541,128.6719,13.775,-1.416667,-0.4166667,1
66803,-0.08740234,1.260254,0.3295898,7.446289,5.493164,52.00195,93.6969,-10.40955,133.3246,-29.73333,-39.29167,13.23333,1
67053,-0.1279297,0.8227538999999999,0.02441406,-6.896973,-6.835938,-24.96338,93.57056,-8.596802,131.2756,14.89167,-1.9583329999999999,-0.7916667,1
67313,-0.024902340000000002,0.9130859,-0.15478519999999998,2.990723,-2.685547,12.63428,91.94458,-7.322388,126.4252,19.05,-1.575,1.766667,1
67543,-0.09130859,0.9501953,0.001464844,-13.73291,6.896973,26.97754,94.89441,-4.707642,129.7156,13.51667,-0.2083333,-2.383333,1
67810,0.18212889999999998,1.086914,-0.09228516,-3.845215,6.713867,-0.42724609999999996,91.73035,-8.074951,138.8287,-29.85833,-40.89167,10.59167,1
68103,0.2236328,1.0,0.1337891,7.568359,-29.11377,-6.408691,94.09241,-11.98059,138.3563,14.79167,0.975,-0.30000000000000004,1
68363,0.0546875,0.7348633,-0.1044922,-12.02393,-20.44678,13.61084,91.86218,-6.553345,129.8914,19.40833,-4.358333,1.775,1
68633,-0.24560549999999998,1.165039,-0.06933594,3.417969,18.37158,9.82666,95.3833,-3.856201,130.8142,-23.39167,-40.74166,14.33333,1
69003,0.1474609,0.8754883,-0.1542969,-10.19287,11.23047,-15.93018,91.38428,-7.432251,139.0979,19.88333,-0.2583333,2.475,1
69233,0.07714844,0.9003905999999999,0.052734380000000004,2.624512,-23.13232,-27.40479,93.67493,-10.18982,134.9725,-28.66667,-39.99166,11.75,1
69533,0.1811523,0.8251953,-0.1176758,-26.7334,-33.02002,4.577637,92.84546,-6.470947,127.2711,18.95,-4.366667,2.966667,1
69793,-0.2573242,1.155273,0.02050781,-0.5493163999999999,7.507324,-4.638672,96.29517,-3.356323,127.5348,13.325,1.433333,-3.325,1
70063,0.1113281,0.8178711,-0.1450195,9.399414,14.09912,-19.89746,91.48315,-7.404785,133.6102,16.975,-2.925,1.166667,1
70433,-0.20605469999999998,0.8500977,0.01220703,-11.65771,-23.13232,-12.45117,93.7793,-6.811523,130.99,-24.93333,-42.05833,12.09167,1
70683,-0.08105469,1.061035,-0.2431641,6.9580079999999995,3.723145,0.0,93.29041,-6.828003,125.6836,-23.1,-42.06667,13.4,1
70973,0.022460940000000002,0.875,0.05224609,-7.141113,-7.995605,30.15137,94.9823,-5.064697,128.9355,-24.375,-42.16667,12.65,1
71203,-0.04296875,0.8110352,-0.1000977,2.13623,27.09961,-12.87842,91.19202,-8.399048,134.9451,18.25,-1.066667,0.1166667,1
71433,0.10839839999999999,1.9340819999999999,0.3706055,39.85596,2.075195,36.49902,94.64722,-8.701172,135.5933,17.76667,1.825,2.291667,1
71633,0.09082031,0.9018554999999999,-0.1030273,-1.953125,-55.66406,-12.75635,92.92786,-6.860962,130.0671,-24.88333,-42.41667,12.15,1
71873,0.03710938,1.128418,-0.08398438,9.521484,8.544922,-1.525879,94.41101,-7.1521,127.7545,17.475,4.033333,0.7000000000000001,1
72143,-0.04638672,0.9746094,-0.04931641,-2.929688,7.080078,20.81299,95.55908,-4.570313,130.0397,13.84167,-0.1083333,-2.1,1
72370,0.2001953,1.001953,-0.03710938,-5.310059,8.239746,-3.723145,91.96655,-7.783813,137.4445,-29.06667,-42.90833,9.133333,1
72653,-0.1386719,0.8046875,0.07373047,-8.972168,-17.63916,-34.30176,93.83423,-9.129639,134.0991,-27.525,-42.01667,11.2,1
72953,-0.04931641,0.7294921999999999,-0.121582,-13.24463,-12.146,18.79883,91.95557,-6.7236329999999995,128.15,19.75833,-2.608333,2.983333,1
73193,-0.06787109,0.9492187999999999,0.056640630000000004,-0.12207029999999999,2.01416,6.04248,95.10864,-4.004517,129.2706,12.3,0.4166667,-2.116667,1
73463,0.04052734,1.074219,-0.03515625,12.26807,21.05713,-19.04297,91.49963,-6.937866,138.6914,-27.83333,-42.35833,8.783334,1
73763,0.35742189999999996,1.086914,0.07470703000000001,-8.300781,-52.49023,-17.02881,93.19153,-9.30542,136.8073,14.21667,0.7416667,-0.775,1
74013,-0.01464844,0.8706054999999999,-0.1538086,-5.187988,-4.760742,13.24463,92.94983,-5.828247,126.7273,19.44167,-3.0,3.841667,1
74283,0.03808594,0.9697266,0.008789063,-14.5874,-3.78418,11.2915,95.43823,-3.696899,129.0015,-21.76667,-41.15833,12.675,1
74560,0.08837891,1.096191,-0.1074219,11.41357,3.356934,-2.563477,91.91162,-7.097168,135.9448,-26.59167,-41.31667,9.066667,1
74903,-0.2006836,0.7680663999999999,0.04980469,-8.422852,-4.272461,-38.39111,94.0979,-7.965088,132.171,13.075,-1.441667,-0.8583333999999999,1
75173,0.01611328,0.8305663999999999,-0.1708984,-7.324219,7.080078,18.00537,92.74109,-6.937866,125.8649,21.775,-0.1916667,3.783333,1
75383,0.08203125,0.9570312999999999,0.03515625,-2.075195,-9.82666,21.85059,95.95459,-4.954834,128.4631,-22.3,-39.84167,13.05,1
75623,-0.1230469,0.7529296999999999,-0.1030273,-9.765625,51.51367,-0.3051758,92.30713,-9.310913,136.7029,20.79167,-1.308333,0.1,1
75863,0.3901367,0.9760742,0.12255859999999999,25.63477,-78.55225,-33.02002,95.10315,-10.97534,135.4889,-28.43333,-38.66667,10.79167,1
76113,-0.03076172,0.7832030999999999,-0.1367188,-26.18408,-68.35938,-9.70459,94.08691,-5.784302,128.7708,15.6,-3.508333,1.858333,1
76373,0.1767578,1.463379,0.15869139999999998,14.28223,7.93457,-15.01465,95.87219,-6.399536,127.1722,17.975,4.491667,0.8583333999999999,1
76601,0.3144531,0.8359375,-0.02294922,-10.55908,45.22705,23.31543,94.48792,-7.069702,129.798,-26.06667,-41.08333,9.408334,1
76863,0.09472656,1.052246,-0.09326172,4.821777,0.0,-4.02832,90.87891,-7.684937,138.9056,26.73333,5.625,5.675,1
77073,0.328125,1.051758,0.1601563,14.64844,-37.41455,-9.887695,93.90015,-11.10168,135.3571,13.80833,1.158333,0.8333332999999999,1
77303,0.048828130000000004,0.8188477,-0.12695309999999999,-0.3051758,0.42724609999999996,12.51221,93.07617,-5.778809,124.3488,20.86667,-2.6,1.933333,1
77603,-0.02734375,0.9472655999999999,0.009765625,-13.06152,5.615234,13.91602,95.84473,-3.197021,125.4364,-19.50833,-41.26667,13.36667,1
77923,0.17382809999999999,1.044434,-0.0234375,-0.793457,9.277344,-13.85498,92.22473,-7.805786,134.1595,39.975,5.708333,0.9083334,1
78253,-0.2319336,0.8032227,0.011230470000000001,-3.4790039999999998,-22.88818,-35.70557,95.55359,-9.475708,131.4514,13.8,-1.233333,-1.941667,1
79493,0.011230470000000001,0.7397461,-0.2075195,-2.258301,-18.79883,18.31055,94.55933,-5.93811,124.9585,-19.64167,-40.14167,12.35833,1
79773,0.3295898,1.172852,0.22998049999999998,8.666992,-14.5874,-28.32031,98.40454,-5.740356,124.3542,19.41667,-3.133333,-0.675,1
80053,-0.02050781,0.8583984,-0.10644529999999999,-18.67676,51.63574,1.6479489999999999,93.60901,-8.261719,129.7266,17.825,0.5083333,-1.891667,1
80363,0.2666016,1.35791,0.12255859999999999,-16.47949,-8.728026999999999,20.69092,95.3009,-8.470459,127.1448,13.0,0.9500000000000001,-1.516667,1
80593,-0.17041019999999998,0.8261719,-0.01171875,-4.943848,-62.37793,-10.13184,93.75732,-5.037231,120.141,11.625,-2.858333,-0.9916666999999999,1
80813,0.01416016,1.242188,-0.1518555,25.75684,-4.089355,-0.06103516,95.49316,-3.927612,115.4828,19.4,4.858333,1.233333,1
81023,0.3911133,0.8022461,-0.04638672,-6.225586,16.05225,7.263184,96.12488,-3.944092,112.7747,13.875,-0.9333332999999999,-1.908333,1
81323,-0.1000977,1.143066,0.2080078,14.5874,-44.67773,49.37744,95.44373,-7.657471,120.0751,-17.68333,-39.86666,12.73333,1
81563,-0.15039059999999999,0.6943359,0.0234375,-1.159668,-24.84131,-41.38184,94.78455,-5.108643,115.3345,14.75,-2.183333,0.0,1
81820,-0.02832031,1.161133,-0.1376953,9.460449,-6.530762,3.234863,95.44373,-2.911377,109.314,-9.175,-41.04167,13.20833,1
82113,-0.1386719,0.9682617,-0.01074219,12.39014,-20.20264,19.34814,96.05896,-1.697388,108.0396,13.89167,-0.7416667,-2.475,1
82323,0.1000977,1.1323239999999999,-0.11865229999999999,-0.4882813,-7.751465,-14.89258,94.86694,-3.817749,111.3959,-11.05,-41.45833,12.61667,1
82573,0.30126949999999997,1.189941,0.07128906,-20.32471,-35.46143,-7.873535,97.27844,-6.295166,107.7594,14.55833,0.36666669999999996,-0.6416666999999999,1
82853,0.01367188,1.055176,-0.1367188,-5.981445,-12.63428,7.751465,95.89966,-1.8457029999999999,95.39978,-2.8,-41.61666,12.08333,1
83123,0.1538086,0.8730469,0.05908203,-14.70947,-28.80859,37.78076,97.64099,1.021729,93.44971,-0.3083333,-39.94167,12.78333,1
83413,-0.07958984,0.684082,-0.01171875,-1.098633,13.3667,-17.02881,94.29016,-4.53186,98.3606,17.85,-0.9333332999999999,0.7416667,1
83673,0.4257813,1.111816,0.078125,-15.74707,-26.55029,-10.25391,98.04749,-6.28418,95.07568,-4.783333,-40.55,13.30833,1
83953,0.02734375,0.9047852,-0.1870117,5.004883,6.347656,11.84082,96.45447,-0.6921387,88.17078,19.225,-2.908333,1.5,1
84283,-0.1401367,1.044434,-0.06201172,-10.0708,-0.1831055,12.3291,99.3219,1.5271000000000001,91.93909,12.91667,-0.05833333,-0.008333334000000001,1
84623,0.06982422,1.061523,-0.11621089999999999,1.8310549999999999,-11.2915,-14.03809,98.71216,-2.147827,95.93811,32.7,5.15,6.666667,1
84850,-0.18603519999999998,0.8002929999999999,0.048828130000000004,-4.333496,-20.81299,-40.95459,100.5688,-2.905884,91.48865,0.2166667,-38.61666,13.8,1
85133,0.1201172,1.074707,-0.2382813,8.300781,-16.78467,6.469727,98.60779,0.7415771,78.79944,5.141667,-39.99166,9.783334,1
85363,-0.1962891,1.081543,-0.08447266,-0.5493163999999999,6.896973,14.89258,99.71191,3.757324,78.48633,13.35833,0.1166667,-1.616667,1
85643,-0.1650391,0.8535155999999999,-0.06152344,-6.713867,57.80029,2.319336,95.78979,-1.4556879999999999,82.99072,17.55833,-2.466667,0.5750000000000001,1
85853,0.203125,1.015137,0.24072269999999998,15.625,-18.43262,7.568359,98.70667,-4.059448,83.64441,0.04166667,-40.78333,11.775,1
86093,-0.1464844,0.8437500000000001,-0.02392578,-14.22119,-34.17969,-14.5874,97.67944,0.04943848,79.93652,12.975,-2.5,-2.841667,1
86343,0.004882813000000001,1.157227,-0.2387695,14.70947,-1.220703,-9.338379,97.19055,0.7965088,75.13,27.30833,5.083333,2.1,1
86563,0.2597656,0.8085937999999999,0.05029297,-7.8125,-6.469727,28.93066,98.16284,1.807251,76.0199,14.725,-0.7000000000000001,-0.6166667,1
86860,0.02832031,0.9316405999999999,-0.2075195,16.23535,-4.394531,1.037598,97.92114,-0.9667969,82.96326,1.291667,-40.375,12.33333,1
87163,-0.23632809999999999,0.8686522999999999,-0.008789063,-12.146,-27.46582,-16.8457,98.97034,0.3405762,78.70056,16.05,-3.133333,-1.8,1
87473,0.06933594,1.23291,0.06494141,13.67188,6.591797,-4.821777,99.02527,1.323853,73.65784,8.066667,-39.04167,11.36667,1
87773,0.2675781,0.7451171999999999,-0.04003906,-13.67188,46.32568,9.94873,97.70142,0.9667969,73.30078,5.6,-40.63334,10.66667,1
88043,0.09619141,1.07373,-0.08740234,2.441406,11.35254,4.516602,98.60779,0.2636719,78.45886,35.03333,5.025,1.483333,1
88293,-0.1655273,0.8178711,0.03173828,-0.42724609999999996,-8.972168,-35.64453,100.8215,0.1483154,73.13599,8.116667,-39.24166,11.575,1
88593,0.03320313,1.089355,-0.2265625,12.75635,-6.347656,13.12256,99.65698,2.823486,65.12695,17.3,5.183333,0.325,1
88903,0.3051758,0.8774413999999999,-0.02441406,-14.5874,30.82275,16.05225,99.25049,2.48291,65.00061,13.375,-1.208333,0.5,1
89233,0.1494141,1.050293,-0.23779299999999998,27.03857,-11.23047,-3.112793,98.37158,1.159058,71.05408,15.8,5.6,2.025,1
89470,-0.2124023,0.828125,-0.02832031,-22.2168,-42.11426,-15.07568,98.38806,2.411499,65.39063,13.06667,-39.46667,7.633333,1
89723,-0.04638672,1.166992,-0.2817383,17.08984,4.272461,-6.408691,96.86096,3.817749,58.89221,25.3,4.25,2.208333,1
89963,0.2641602,0.6860352,0.0703125,-3.234863,-24.84131,34.11865,97.20703,4.0979,56.4917,15.98333,-39.01667,4.675,1
90203,0.1533203,0.8085937999999999,-0.1132813,1.464844,7.995605,-17.39502,95.92712,1.8457029999999999,60.04578,16.55,-3.575,1.858333,1
90463,-0.184082,0.9472655999999999,0.3432617,18.43262,-26.00098,59.50928,98.23975,-1.131592,59.74915,16.88333,-0.8416665999999999,2.225,1
90683,-0.171875,0.8930663999999999,-0.07373047,-16.96777,-32.10449,-10.00977,99.44824,2.087402,54.02527,16.575,-1.608333,-2.866667,1
90933,-0.02783203,1.366211,-0.04248047,14.46533,10.49805,1.7700200000000001,99.47021,4.081421,47.46094,14.5,3.508333,1.041667,1
91213,0.19042969999999998,0.7514647999999999,-0.03955078,-14.95361,36.92627,9.82666,99.14063,2.774048,49.45496,13.96667,-3.058333,-0.36666669999999996,1
91524,-0.1054688,2.172852,0.10693359999999999,-13.85498,26.36719,45.04395,102.3212,0.9942626999999999,54.22302,19.00833,-0.375,0.5083333,1
91793,0.1035156,0.9511719,-0.1489258,2.563477,-43.94531,-23.68164,99.26147,3.669434,56.05774,17.375,-37.56667,4.691667,1
92083,0.05029297,1.136719,-0.2348633,10.00977,-6.530762,-1.159668,100.069,4.383545,55.56335,19.3,5.258333,1.225,1
92333,0.2338867,0.8393554999999999,-0.0703125,-4.089355,-18.98193,16.6626,99.4043,3.834229,48.15857,14.375,-1.441667,-0.7916667,1
92603,0.15869139999999998,1.123047,-0.0234375,30.45654,-6.591797,-1.098633,100.3436,1.658936,48.94409,16.425,-39.40833,1.283333,1
92890,-0.24072269999999998,0.7167969,0.002441406,-22.64404,-62.19482,-21.30127,97.21252,3.493652,41.25366,20.25,-38.55833,-5.033333,1
93183,-0.001953125,1.121582,-0.2041016,7.385254,-9.94873,-7.507324,96.52039,4.729614,33.51379,26.16667,7.15,3.616667,1
93433,0.3232422,0.8154296999999999,0.06494141,0.8544921999999999,11.04736,24.10889,98.26721,4.21875,35.7605,13.11667,-0.7333333,-2.633333,1
93790,-0.2587891,0.8994141,0.2753906,19.16504,-0.793457,59.81445,100.3931,-1.576538,47.40051,15.21667,-39.86666,-0.5333333,1
94073,-0.1762695,0.8022461,-0.078125,-19.104,-52.85645,-9.155273,99.60754,1.741333,43.00049,13.20833,-2.475,-2.558333,1
94353,0.05761719,1.14209,0.184082,17.33398,36.37695,-37.53662,99.40979,4.795532,37.11731,19.05833,-0.4166667,-0.125,1
94573,0.21875000000000003,0.7666016,0.022460940000000002,-0.3051758,11.59668,31.55518,98.38257,4.77356,37.76001,15.991670000000001,-1.791667,-0.8833333,1
94793,0.1386719,0.7910155999999999,-0.1342773,8.239746,22.03369,-14.34326,97.66296,1.620483,44.48364,17.85833,-1.541667,2.783333,1
95003,0.03417969,0.9697266,-0.052734380000000004,0.0,20.08057,-14.46533,100.9369,-1.472168,47.75757,15.64167,-37.84167,-1.816667,1
96253,-0.1020508,0.8818359,0.020996090000000002,-10.00977,-54.13818,-15.44189,96.37756,3.438721,42.86865,13.51667,-2.191667,-2.058333,1
96553,0.4375,1.692871,0.4213867,9.58252,-30.63965,-61.88965,99.37683,5.064697,38.38623,20.4,-2.075,1.3,1
96813,0.38037109999999996,0.828125,-0.02294922,-8.483887,-24.78027,21.48438,98.91541,4.356079,35.39246,14.15833,-0.48333329999999997,-0.55,1
97043,0.041015630000000004,1.057617,0.01416016,22.15576,5.92041,-0.5493163999999999,99.54163,2.268677,42.52808,16.8,3.775,1.166667,1
97343,-0.18261719999999998,0.809082,-0.04296875,-14.89258,-47.24121,-13.79395,98.75061,2.559814,37.35352,22.775,-35.88334,-7.091667,1
97643,0.2958984,1.532715,0.16601559999999999,1.464844,24.96338,-57.49512,100.1074,4.312134,33.61267,23.26667,-35.4,-6.725,1
97913,0.30273439999999996,0.7685546999999999,0.01904297,-5.92041,4.943848,28.74756,99.45923,3.9990229999999998,35.22766,14.741670000000001,-1.35,0.06666667,1
98163,-0.02783203,0.9350586,-0.1958008,-0.793457,-1.8310549999999999,-0.4882813,100.0415,1.054688,43.2312,18.73333,-38.39167,-2.025,1
98473,-0.1708984,0.8027344,0.015625,-10.00977,-23.07129,-27.9541,100.3931,1.604004,38.61694,16.175,-4.2,-0.4583333,1
98763,0.2602539,1.516602,0.140625,-13.91602,21.42334,-56.64063,100.6238,5.19104,31.04736,23.60833,-37.65,-7.033333,1
99113,0.1538086,0.8291016,-0.046875,-4.272461,64.20898,18.67676,98.49243,2.444458,35.20569,13.49167,-2.416667,-0.625,1
99344,-0.206543,1.661133,0.18994139999999998,-42.78564,15.68604,61.64551,100.2722,0.6756592,38.67188,19.65833,-41.25,-3.158333,1
99593,-0.1210938,0.8950195,0.04296875,-0.3051758,-26.18408,-28.9917,99.15161,2.488403,32.98645,15.81667,-2.883333,-0.9833333999999999,1
99833,0.1328125,1.631836,0.15625,18.31055,31.00586,-42.48047,100.6787,4.570313,28.58093,25.38333,-37.6,-7.75,1
100073,0.2070313,0.8369141,0.06542969,-18.18848,-18.55469,37.35352,99.8822,7.185059,28.77319,12.975,-1.158333,-1.416667,1
100333,0.05957031,0.7011719,-0.09326172,4.699707,29.1748,-16.41846,98.98682,2.796021,35.29358,18.7,-2.916667,-2.125,1
100563,-0.4536133,1.112305,0.31835939999999996,-52.97852,29.1748,61.21826,100.5249,1.428223,38.19397,18.20833,-2.15,0.8666667,1
100814,0.199707,0.8950195,-0.203125,-7.507324,-34.24072,-4.02832,99.08569,4.702148,29.64111,16.50833,-3.041667,1.225,1
101050,-0.22119139999999998,1.220215,0.08544922,-13.06152,-2.990723,-5.310059,102.019,5.641479,33.45337,24.675,-35.65833,-3.9333329999999997,1
101323,0.2109375,0.7451171999999999,-0.03125,-11.77979,52.79541,18.31055,100.0031,2.779541,33.20618,12.00833,-2.241667,-0.1833333,1
101573,-0.2084961,1.180176,0.3051758,-14.64844,23.37646,58.47168,102.2278,-0.08239746,38.61694,18.55,-38.49166,-0.9416667,1
101873,0.1772461,0.9453125,-0.1455078,-8.178711,-64.27002,-9.643555,99.43726,4.202271,32.35474,22.2,-37.05,-6.9,1
102133,-0.017089840000000002,1.393066,0.2026367,27.40479,-4.638672,-15.31982,100.2393,3.746338,29.07532,18.20833,1.341667,-1.008333,1
102383,0.2270508,0.6323242,0.02929688,-13.91602,67.81006000000001,18.98193,99.55811,3.153076,31.37146,19.76667,-37.14167,-4.808333,1
102683,-0.1459961,1.053711,0.25537109999999996,31.49414,-13.00049,51.26953,100.9369,0.1483154,37.496340000000004,15.64167,-0.85,0.2666667,1
102993,0.168457,0.8618163999999999,-0.22167969999999998,-22.2168,-27.83203,-3.601074,100.1459,3.477173,33.38196,20.15,-36.78333,-6.141667,1
103303,-0.199707,1.2260739999999999,-0.03808594,-16.11328,-4.516602,-1.7700200000000001,100.5414,5.828247,31.63513,13.575,1.55,-1.916667,1
103674,-0.03564453,0.9916992,-0.1450195,6.408691,10.92529,-7.873535,99.14063,2.103882,39.2926,18.73333,-37.275,-4.166667,1
103933,0.1538086,0.9121094,-0.02197266,15.56396,-14.22119,-18.31055,100.5359,0.0769043,34.96399,13.95,-0.2166667,-3.15,1
104183,0.03320313,1.103027,-0.2509766,13.18359,1.098633,-8.483887,98.5144,2.839966,28.745730000000002,20.69167,-37.85833,-9.433333,1
104423,-0.1923828,1.187012,0.026367190000000002,3.234863,14.52637,-12.20703,101.4972,6.547852,31.08032,21.64167,-36.6,-7.091667,1
104693,0.10058589999999999,0.7875977,-0.2338867,7.629395,14.64844,-27.34375,98.80005,2.268677,38.73779,19.9,-36.71667,-3.641667,1
104933,-0.2158203,1.0698239999999999,0.2910156,10.68115,-7.995605,62.92725,100.9369,-0.8349609,38.91357,17.19167,-0.7666666999999999,-0.1416667,1
105173,-0.23339839999999998,0.8325195,-0.01269531,-24.53613,-20.38574,-15.86914,100.849,2.1698,34.86511,16.25,-4.1,-3.05,1
105393,-0.00390625,1.063965,-0.22900389999999998,3.662109,2.929688,1.220703,98.40454,3.4552,27.6416,25.23333,3.658333,2.683333,1
105603,0.2514648,0.7846679999999999,0.04980469,-5.859375,13.42773,25.6958,99.95361,4.691162,31.0968,20.69167,-36.80833,-6.616667,1
105853,0.08935547,0.7832030999999999,-0.05859375,-3.173828,35.70557,-23.62061,98.91541,0.9228516,41.16577,17.575,-2.875,0.8333332999999999,1
106103,0.1201172,0.9702147999999999,0.006835938000000001,6.225586,-16.29639,-22.09473,100.3601,-1.790771,38.172,16.71667,-38.45833,-2.958333,1
106373,0.16601559999999999,0.7915038999999999,-0.1298828,-14.28223,-24.90234,7.873535,98.17383,2.005005,34.57397,20.01667,-4.55,3.491667,1
106613,-0.1918945,1.203125,-0.08056641,5.981445,5.249023,-8.056641,102.03,5.108643,38.26538,20.36667,-35.46667,-2.825,1
106903,0.15087889999999998,0.8632812999999999,-0.14697269999999998,7.202148,7.202148,-17.45605,99.44275,1.213989,45.20325,20.85833,0.1416667,1.225,1
107213,-0.06884766,0.9140625,0.03125,-7.873535,-10.31494,-18.73779,100.0854,-1.483154,42.16003,16.63333,-37.975,-1.75,1
107533,0.1118164,1.121582,-0.1542969,28.07617,12.02393,-7.385254,98.39355,2.510376,37.7655,21.66667,6.0,2.833333,1
107864,0.3276367,0.6362304999999999,0.07470703000000001,-9.155273,-9.521484,23.07129,99.85474,2.318115,38.41919,17.23333,-3.425,-0.36666669999999996,1
108173,0.1484375,1.368652,0.1450195,34.66797,-1.89209,5.859375,101.239,0.1208496,45.0824,18.06667,3.233333,0.3333333,1
108413,-0.10888669999999999,0.7456054999999999,-0.07910156,-20.87402,-47.42432,-14.89258,99.26697,1.098633,42.47864,17.925,-37.50834,-2.091667,1
108643,0.03955078,1.289063,-0.1079102,14.52637,-8.178711,-7.995605,100.8765,2.955322,38.61694,14.05,4.45,1.558333,1
108893,0.06542969,0.9438477,0.07128906,-2.868652,-15.01465,12.26807,101.9257,5.075684,40.19348,12.40833,0.75,-1.683333,1
109103,0.08544922,1.003906,-0.05810547,16.11328,9.765625,-7.751465,99.40979,2.329102,43.41248,18.375,-36.74166,-1.775,1
109343,0.29492189999999996,1.059082,0.1435547,6.286621,-49.49951,3.967285,100.5194,-0.8789062999999999,41.05591,15.44167,0.35000000000000003,-0.7333333,1
109623,-0.168457,0.7558594,-0.1040039,-16.54053,-62.07275,-13.12256,98.6792,3.806763,35.89783,11.45833,-1.95,-1.733333,1
109833,-0.07861328000000001,1.1533200000000001,0.31689449999999997,38.08594,15.56396,-25.45166,100.9918,5.476685,35.38696,21.675,-35.7,-5.625,1
110083,0.3432617,0.7563477,-0.004394531,-10.0708,16.05225,26.06201,98.86597,3.416748,32.65686,15.65,-1.808333,-2.416667,1
110333,0.08056641,1.044922,-0.01855469,29.35791,24.96338,-4.394531,98.39905,1.246948,39.01794,17.30833,-38.9,-4.941667,1
110603,-0.04052734,0.9511719,0.01855469,5.859375,-8.300781,-30.63965,99.34387,-0.8953857,37.10632,12.55,0.5333333,-4.05,1
110843,-0.005859375,1.10791,-0.2236328,26.67236,8.850098,-8.544922,97.66846,2.69165,32.12402,20.68333,-37.05833,-7.75,1
111133,0.3618164,0.7270508,0.03173828,-18.24951,19.47021,12.45117,99.49768,2.653198,34.56848,15.425,-2.6,-1.641667,1
111463,0.1870117,1.170898,-0.08789063,34.36279,14.52637,-2.13623,99.89868,1.669922,40.00122,16.025,4.575,1.1,1
111773,-0.18652339999999998,0.7631836,-0.04541016,-17.27295,-30.33447,-11.47461,98.34961,2.521362,37.771,11.65,-2.441667,-1.95,1
113083,0.002441406,1.065918,-0.2084961,10.80322,-9.460449,-5.493164,97.4762,2.515869,31.16272,22.48333,5.141667,3.033333,1
113423,0.2841797,0.746582,0.09228516,-11.47461,6.774902,26.48926,98.92639,4.334106,33.72803,14.09167,-1.116667,-2.575,1
113623,0.1328125,0.7504883,-0.0625,11.59668,6.286621,-17.45605,97.229,0.9887695,41.5448,19.95,0.5,3.283333,1
113833,0.2509766,0.9086913999999999,0.29492189999999996,15.31982,-36.62109,4.516602,100.3107,-3.015747,42.06116,14.93333,1.816667,0.2666667,1
114053,0.1606445,0.7441405999999999,-0.23291019999999998,-25.45166,-25.39063,18.37158,97.80579,2.609253,34.81018,20.1,-37.75,-7.191667,1
114313,0.04541016,1.070801,0.1723633,25.81787,22.27783,-34.17969,101.5411,4.301147,37.04041,20.56667,0.01666667,0.4666667,1
114523,0.2729492,0.6982421999999999,0.04003906,-10.37598,14.5874,29.66309,100.3821,3.054199,37.21619,16.15,-2.058333,-2.025,1
114743,0.09423828000000001,1.096191,-0.04003906,25.39063,-14.28223,-3.173828,100.7886,0.802002,42.61597,18.73333,-37.56667,-2.333333,1
114993,-0.006347656,0.9565429999999999,-0.0390625,3.4790039999999998,3.662109,-22.64404,101.1127,-1.3348389999999999,38.58948,12.675,-0.40833329999999995,-2.675,1
115283,0.030273440000000002,1.137695,-0.1772461,19.77539,-4.699707,-11.77979,100.2722,2.449951,32.69531,21.49167,-38.08333,-7.391667,1
115553,0.2402344,0.7558594,0.05224609,-1.6479489999999999,19.104,20.56885,100.2448,3.652954,36.23291,21.35,-38.10833,-4.775,1
115843,0.09814453000000001,0.8164062999999999,-0.1552734,-7.93457,9.338379,-19.34814,99.14063,1.356812,42.86865,16.41667,-3.816667,2.233333,1
116083,-0.168457,0.8837891,0.2753906,9.521484,-3.356934,56.51855,100.816,-1.807251,42.01721,18.54167,-1.425,-1.825,1
116333,0.2397461,0.8842772999999999,-0.1958008,-9.58252,-56.51855,3.967285,99.02527,3.598022,32.56897,16.23333,-4.791667,1.641667,1
116573,-0.1459961,0.9638671999999999,0.13476559999999999,-16.11328,13.79395,-21.1792,102.1783,6.031494,32.31628,23.90833,-35.83333,-6.041667,1
116843,0.140625,0.765625,-0.060546880000000004,-12.75635,76.9043,15.31982,100.7776,2.021484,34.74976,12.775,-2.583333,-0.7666666999999999,1
117103,-0.1772461,1.8413089999999999,0.30908199999999997,-0.06103516,37.35352,63.47656,103.3154,1.219482,40.5011,19.93333,-1.116667,-1.5833329999999999,1
117393,0.18164059999999999,0.9633788999999999,-0.1777344,-11.47461,-88.31787,-13.48877,100.0085,3.883667,32.32178,23.55833,-35.78333,-11.05,1
117713,-0.08935547,1.057129,0.2353516,-0.5493163999999999,6.774902,-24.10889,102.5189,6.300659,29.729,19.3,-0.5416667,0.125,1
117953,0.3134766,0.8129883,-0.02294922,-15.86914,31.61621,16.90674,101.2115,4.350586,28.65784,12.75,-0.925,-0.5,1
118163,0.05029297,1.288086,0.05810547,19.104,-10.74219,7.202148,100.7446,2.565308,35.1178,24.39167,-34.425,-8.125,1
118393,-0.08349609,0.9067383,0.06152344,-10.0708,8.789063,-33.87451,100.5688,-0.4174805,32.06909,11.85833,-0.008333334000000001,-1.416667,1
118663,0.1020508,0.7104492,-0.1723633,-23.01025,-22.52197,12.81738,98.23975,4.103394,26.93848,19.18333,-4.041667,1.9000000000000001,1
118883,-0.03662109,1.310059,0.22949219999999998,21.11816,-11.90186,-15.74707,99.65698,3.273926,25.31799,17.25833,2.308333,-0.8250000000000001,1
119103,0.21777339999999998,0.7451171999999999,-0.01757813,-15.50293,83.6792,17.39502,99.65698,3.208008,28.13599,26.61667,-33.55,-10.55,1
119343,-0.06884766,0.9643554999999999,-0.1401367,3.112793,12.63428,-11.59668,99.20105,2.922363,36.59546,40.1,5.458333,-2.175,1
119583,-0.3212891,0.8432617,0.12060549999999999,-7.873535,-10.25391,-30.33447,100.0305,1.571045,37.67212,27.00833,-33.00834,-6.533333,1
119843,-0.03808594,0.7089844,-0.1040039,-3.967285,-16.11328,9.58252,97.6355,4.3396,26.85608,18.75833,-5.458333,0.4666667,1
120113,-0.2231445,1.148926,-0.024902340000000002,0.9155272999999999,21.97266,-1.586914,100.6622,6.619263,28.72925,29.60833,-31.84167,-11.6,1
120403,0.21435549999999998,0.8974609,-0.08154297,-19.16504,16.72363,-20.01953,99.37134,1.230469,38.60046,19.65,-2.866667,1.5833329999999999,1
120713,-0.02783203,0.9599609,0.07275391,-12.39014,9.521484,-5.615234,100.7446,-1.373291,38.22144,25.98333,-33.76667,-3.4,1
121003,-0.07177734,1.055176,-0.1875,22.03369,-17.15088,-1.281738,100.5139,2.93335,34.15649,23.625,1.241667,2.083333,1
121333,0.1611328,0.8017578,0.08886719,-15.19775,-38.39111,39.24561,101.228,4.77356,32.6239,12.6,-0.8583333999999999,-2.175,1
121663,0.07324219,1.01416,-0.1464844,5.371094,12.3291,0.7324219,100.5084,2.576294,37.54028,40.09167,6.058333,1.466667,1
121963,-0.23632809999999999,0.8203125,0.09082031,-10.92529,9.399414,-43.15186,100.9863,1.8731689999999999,36.39221,13.65833,-1.466667,0.8333332999999999,1
122273,0.1611328,1.058594,-0.09667969,10.13184,-16.60156,12.87842,99.19556,2.427979,28.66882,17.3,3.358333,0.075,1
122513,0.28125,0.7416992,0.002929688,-2.624512,56.82373,14.34326,99.59656,2.867432,31.80542,27.89167,-34.21667,-6.366667,1
122753,0.14257809999999999,1.075684,-0.10693359999999999,5.126953,19.16504,-7.202148,100.2612,1.950073,40.10559,35.3,5.5,6.125,1
122993,0.5405272999999999,1.295898,0.07373047,36.19385,-43.64014,-18.79883,102.03,-2.27417,40.1825,13.675,1.166667,-2.3,1
123203,0.02929688,0.7626953,-0.2070313,12.39014,-11.71875,11.16943,99.60205,1.488647,35.28259,27.51667,-35.35,-3.8,1
123454,0.4130859,1.394043,0.4526367,22.2168,4.821777,-55.05371,103.3868,1.257935,37.91931,20.26667,-1.933333,-0.24166669999999998,1
123730,-0.1030273,0.7514647999999999,-0.07958984,13.18359,98.51074,6.652832,102.2937,-4.801025,54.55811,17.14167,-35.35,13.38333,1
123993,0.1713867,1.353027,0.25439449999999997,41.99219,50.53711,-17.39502,106.1499,-5.114136,64.90723,17.24167,1.275,3.358333,1
124203,-0.24560549999999998,0.8217772999999999,0.09667969,-24.35303,91.73584,-31.43311,102.3926,-8.475952,78.32153,12.88333,-0.7916667,-2.033333,1
124433,0.03125,1.189453,-0.2353516,32.22656,18.67676,11.16943,100.9369,-9.761353,87.75879,-4.008333,-35.45,24.36667,1
124763,0.3051758,0.9545897999999999,-0.0034179690000000003,16.72363,90.57617,6.896973,102.2168,-12.94739,106.452,14.10833,-0.8083332999999999,-0.15,1
125033,0.2670898,1.034668,-0.3237305,21.3623,37.47559,-11.90186,98.03101,-17.31445,129.353,-31.91667,-32.91667,20.81667,1
125303,0.08203125,1.04834,0.0034179690000000003,-4.272461,104.7974,-12.81738,94.04846,-18.53943,147.7167,13.69167,0.9166667,0.08333334,1
125553,-0.14306639999999998,1.03125,-0.09326172,-9.399414,33.75244,1.6479489999999999,86.17126,-15.17212,166.6681,-46.43333,-34.375,1.3333329999999999,1
125863,0.015136720000000001,0.8979492,0.07128906,9.58252,59.2041,27.34375,88.06641,-15.44128,178.1433,15.43333,-0.125,-1.308333,1
126193,0.152832,1.016602,-0.1831055,16.35742,7.873535,4.577637,84.60022,-16.34216,-166.9482,25.13333,-0.3833333,0.17500000000000002,1
126503,-0.1171875,0.8979492,0.02685547,-2.624512,41.38184,-42.84668,83.8916,-12.90344,-156.9452,14.54167,-0.1666667,-0.5083333,1
126723,0.01660156,0.8183594,-0.144043,-18.00537,-0.3662109,2.929688,82.35901,-9.904175,-156.4453,19.86667,-3.9,1.516667,1
126923,0.30273439999999996,1.333984,0.27050779999999996,22.09473,22.09473,-39.61182,84.79248,-8.168335,-155.0061,18.825,0.3916667,0.1666667,1
127133,0.28662109999999996,0.8500977,0.08203125,-3.356934,20.32471,30.33447,84.11682,-9.360352,-150.0787,15.775,-1.775,-0.7916667,1
127360,0.001953125,0.9633788999999999,-0.2885742,5.67627,12.63428,-0.42724609999999996,82.47986,-9.585571,-139.8669,-48.96667,-31.91667,-30.75833,1
127603,0.269043,0.871582,0.13525389999999998,18.18848,-16.54053,-20.50781,83.51807,-9.212036,-138.5815,15.175,0.1333333,0.4166667,1
127833,0.2089844,0.9428711,-0.1362305,5.7983400000000005,-33.38623,-7.93457,84.04541,-5.020752,-141.839,15.73333,-1.983333,-2.133333,1
128053,-0.1230469,0.9038086,0.23730469999999998,-4.821777,-7.202148,-11.04736,86.4624,-3.175049,-139.1528,16.225,0.1916667,-0.6916667,1
129370,0.41162109999999996,0.7568359,0.05615234,-10.43701,18.43262,33.93555,86.03943,-4.229736,-136.8677,-47.61666,-32.91667,-29.45,1
129653,0.08300781,1.084473,-0.30957029999999996,25.81787,0.1831055,11.04736,85.33081,-5.641479,-131.1383,-47.36666,-32.08333,-31.41667,1
129953,0.16601559999999999,1.005859,0.06738281,10.19287,-3.540039,-5.493164,86.77551,-6.970825,-132.4677,13.725,0.8833333,-1.408333,1
130193,-0.10107419999999999,1.030273,-0.1484375,-1.6479489999999999,6.286621,1.281738,85.66589,-3.032227,-134.0662,-46.24166,-33.88334,-28.59167,1
130463,0.06787109,0.9775391,0.01318359,-15.625,5.432129,25.81787,87.64343,-0.5603026999999999,-132.0721,-45.43333,-34.475,-28.675,1
130763,0.04833984,0.9033203,-0.12695309999999999,-18.98193,4.02832,-7.385254,85.16052,-4.037476,-128.3972,16.64167,-1.9000000000000001,1.575,1
131013,0.315918,1.136719,0.2275391,5.310059,-8.056641,-5.249023,86.66565,-5.421753,-130.7538,15.70833,0.36666669999999996,1.083333,1
131293,0.1020508,0.7709961,-0.152832,-28.86963,9.82666,15.07568,86.00647,-0.3570557,-133.5114,20.55,-4.9,3.033333,1
131623,-0.24902339999999998,1.1845700000000001,-0.04003906,7.019043,-6.469727,0.9155272999999999,88.59924,0.7086182,-132.4347,13.69167,1.1,-0.3833333,1
131933,0.1035156,0.8442383,-0.1040039,-7.568359,-10.62012,-14.09912,85.86365,-2.878418,-128.0237,18.5,-2.491667,1.308333,1
132163,0.3115234,1.021973,0.2353516,9.399414,-39.73389,-0.6103516,87.30835,-5.668945,-130.4901,16.525,1.6,-1.725,1
132383,-0.1279297,0.8115234,0.03076172,-1.586914,-2.01416,-36.13281,86.25366,-1.917114,-130.8527,16.375,-3.75,-0.525,1
132593,0.1499023,1.677246,0.09277344,8.056641,15.86914,-21.85059,87.37976,0.49438479999999996,-132.1545,-44.35833,-35.65833,-26.85833,1
132853,0.1044922,0.8862304999999999,0.04541016,-18.55469,-7.324219,33.14209,87.13806,0.2416992,-132.1161,14.6,0.275,-0.01666667,1
133083,0.08837891,0.8120117,-0.09960938,-13.5498,6.286621,-0.5493163999999999,84.68262,-3.521118,-130.1715,17.25833,-2.65,2.958333,1
133303,0.23632809999999999,0.9960937999999999,0.09667969,-6.103516,-19.34814,-0.3051758,87.59399,-4.663696,-133.0005,13.70833,0.4583333,-1.775,1
133600,-0.1728516,1.099609,-0.24560549999999998,6.225586,8.972168,-4.150391,85.21545,-0.45593259999999997,-134.5386,-46.775,-36.01667,-24.35,1
133864,-0.16601559999999999,1.030762,0.121582,12.87842,-2.990723,-4.211426,87.25891,0.3295898,-134.6155,13.49167,0.2916667,-2.216667,1
134093,0.1928711,0.8759766,-0.03076172,-12.146,-2.868652,-6.164551,84.8584,-4.713135,-130.0177,-49.05,-33.5,-27.60833,1
134383,-0.12695309999999999,0.8510742,0.23730469999999998,14.16016,-39.42871,16.72363,86.83044,-5.993042,-129.1443,17.56667,1.3,-0.9833333999999999,1
134633,-0.1210938,1.073242,-0.08105469,25.6958,-41.80908,-25.81787,88.46191,0.8459473,-131.8854,13.08333,-1.975,-2.266667,1
134903,0.11621089999999999,0.8779296999999999,0.2744141,23.80371,-23.4375,-11.65771,88.41797,2.702637,-131.2537,-43.75834,-37.83333,-24.00833,1
135173,0.3222656,0.8618163999999999,-0.001953125,-5.737305,-5.859375,26.85547,87.52258,-0.9338379,-134.5605,15.69167,-0.8333332999999999,-2.516667,1
135453,0.2797852,1.320313,0.1035156,40.03906,8.117676,-0.793457,87.88513,-3.949585,-129.6112,14.075,4.691667,0.04166667,1
135733,-0.27001949999999997,0.7329102,-0.02539063,-10.55908,-33.38623,-19.04297,87.19299,-1.038208,-128.1061,-44.79167,-35.625,-24.99167,1
136123,-0.2578125,0.9711913999999999,0.06787109,3.723145,-6.164551,-0.42724609999999996,89.02222,1.51062,-130.9296,14.80833,0.3833333,-2.158333,1
136393,0.1025391,0.9023437999999999,-0.028808590000000002,-6.469727,44.18945,24.04785,87.55554,-2.180786,-129.1388,14.00833,-0.8166667,-1.4,1
136643,-0.2475586,1.215332,0.17431639999999998,-43.09082,8.361816,34.30176,88.26965,-4.378052,-124.7772,-46.34167,-32.99166,-27.45,1
136983,0.1367188,0.9663086,-0.12255859999999999,16.90674,-37.59766,-17.02881,87.40173,0.6481933999999999,-127.738,15.03333,-1.308333,-5.441667,1
137213,0.1376953,1.229004,-0.2558594,17.02881,-5.371094,-4.577637,87.35229,1.428223,-127.9028,18.71667,5.208333,0.15,1
137423,0.2724609,0.8461913999999999,0.04833984,3.90625,-1.586914,21.24023,87.6709,0.24719239999999998,-128.2654,-43.80833,-35.16667,-26.275,1
137673,0.1538086,0.8920897999999999,-0.06494141,-5.432129,4.272461,-9.765625,86.03943,-0.6646729,-123.5303,18.99167,-2.175,2.225,1
137923,0.1137695,1.027344,0.05566406,-8.361816,-12.39014,-11.41357,87.66541,-2.977295,-123.5577,14.91667,0.1333333,-0.30000000000000004,1
138243,0.07177734,0.9394530999999999,-0.14257809999999999,-3.662109,-29.78516,-9.338379,87.24792,1.686401,-126.568,16.13333,-3.616667,0.5083333,1
138473,-0.09863281,0.8837891,0.2612305,9.94873,2.01416,-5.493164,90.37354,2.911377,-125.5518,16.74167,-0.09166667,-0.7916667,1
138743,0.03955078,0.8554687999999999,-0.1772461,-17.82227,5.859375,-0.4882813,89.2804,-1.7303469999999999,-123.8269,17.15,-3.433333,1.8,1
139043,0.31787109999999996,1.028809,0.12207029999999999,12.45117,6.591797,-17.7002,90.87341,-2.839966,-124.0906,-44.275,-34.21667,-25.91667,1
139333,-0.1040039,0.8530272999999999,-0.15136719999999998,-20.62988,6.9580079999999995,4.211426,88.22571,1.5271000000000001,-126.2164,19.075,-4.816667,1.183333,1
139673,-0.190918,1.112305,-0.04199219,10.13184,10.62012,2.868652,89.52209,3.438721,-126.8427,14.175,0.275,0.55,1
139943,0.15820309999999999,0.8657227,-0.109375,-18.55469,1.953125,-16.8457,86.68213,-1.708374,-121.778,-43.425,-33.60833,-27.85,1
140223,0.041015630000000004,0.8896484,0.3320313,23.13232,-18.24951,28.56445,87.09412,-4.053955,-121.0089,17.325,0.625,0.15,1
140473,0.1494141,1.035645,-0.2114258,-4.882813,-33.08105,-13.91602,87.80273,0.703125,-124.2444,14.70833,-1.608333,-1.791667,1
140813,-0.01660156,0.9790038999999999,0.2158203,11.2915,-2.075195,-10.55908,89.3573,1.796265,-124.1675,18.575,-0.55,2.041667,1
141113,-0.078125,0.8002929999999999,-0.09521484000000001,7.995605,17.08984,2.685547,86.98425,-2.329102,-121.2067,13.63333,0.5833332999999999,-3.033333,1
141323,0.04785156,1.165527,-0.28613279999999996,12.93945,-12.75635,-1.89209,87.84668,-1.329346,-119.2072,15.71667,6.491667,3.258333,1
141533,-0.2807617,0.8647461,-0.009277344,-7.080078,-29.23584,-23.92578,88.53882,1.477661,-120.8826,-41.275,-36.075,-25.89167,1
141773,-0.203125,0.9570312999999999,-0.08691406,-5.7983400000000005,0.24414059999999999,5.7983400000000005,87.22046,1.488647,-124.3542,20.45,-4.108333,1.083333,1
142043,-0.026367190000000002,0.9272461,0.2583008,24.6582,-16.35742,-18.06641,89.42871,2.081909,-125.0519,19.48333,-1.9000000000000001,-1.325,1
142263,0.2597656,0.8237304999999999,0.04394531,13.3667,26.97754,19.83643,88.24219,-0.6921387,-124.9475,13.125,-2.241667,-1.425,1
142483,0.1958008,1.214844,-0.06201172,30.2124,0.4882813,-4.02832,88.34106,-1.549072,-118.1909,13.61667,5.708333,0.975,1
142753,0.03369141,0.9760742,0.03076172,-3.356934,-12.20703,-26.48926,88.94531,-2.460938,-118.3173,13.63333,0.40833329999999995,-1.066667,1
143003,-0.08886719,1.061523,-0.1914063,-1.525879,2.990723,-2.01416,87.14355,1.230469,-123.0579,25.65,2.95,4.25,1
143273,0.137207,0.9384766,0.022460940000000002,-15.80811,-15.74707,28.25928,89.21997,2.15332,-122.9535,-42.59167,-35.375,-24.10833,1
143573,0.22167969999999998,0.9736328,-0.1870117,6.103516,0.5493163999999999,10.92529,87.00623,-1.6149900000000001,-119.0918,-43.725,-33.825,-27.08333,1
143833,0.3603516,1.112305,0.17431639999999998,11.04736,9.887695,-6.713867,89.10461,-3.3728029999999998,-120.13,15.45,0.125,-0.2,1
144093,0.04248047,0.8027344,-0.1772461,-30.45654,0.8544921999999999,8.483887,86.78101,0.8294678,-121.4703,-42.44167,-35.29167,-26.11667,1
144403,-0.2275391,1.014648,0.06201172,9.338379,-10.25391,-7.385254,89.21448,2.680664,-121.0144,13.18333,1.091667,-0.8250000000000001,1
144713,0.1572266,0.8925780999999999,-0.005371094000000001,-7.995605,3.723145,-9.277344,87.75879,-1.521606,-115.6146,18.51667,-5.5,1.45,1
145043,0.2646484,1.112793,0.06445313,-0.06103516,-14.22119,0.7324219,90.28564,-2.724609,-114.9115,15.275,0.15833329999999998,-0.6333333,1
146283,0.07958984,1.000488,0.04589844,-12.02393,3.540039,-5.187988,89.91211,-3.339844,-115.8179,14.6,0.8416665999999999,-0.3833333,1
146483,0.1401367,0.9785155999999999,-0.20214839999999998,-10.43701,-16.54053,-4.150391,88.94531,1.1920169999999999,-117.6031,16.05,-3.008333,0.6083333,1
146693,-0.08251953000000001,0.8271484,0.26318359999999996,-8.850098,0.7324219,2.441406,90.36804,2.757568,-116.7462,-41.475,-36.6,-24.98333,1
146933,0.2431641,0.8735352,0.002929688,4.760742,31.12793,12.3291,89.34631,-0.1318359,-116.3837,14.59167,-1.608333,-1.5,1
147173,0.15039059999999999,1.661621,0.269043,26.55029,-6.408691,15.74707,89.6814,-1.170044,-111.8243,-43.74166,-34.05,-28.79167,1
147413,-0.03564453,0.9248046999999999,0.0078125,4.699707,-12.93945,-37.59766,89.81323,-1.8182369999999999,-113.4558,13.11667,0.2916667,-0.6833332999999999,1
147700,-0.08105469,1.054199,-0.1923828,21.54541,-2.929688,-6.774902,88.73108,1.148071,-117.724,-42.65833,-35.94167,-24.50833,1
147963,-0.1601563,0.9716796999999999,0.09472656,15.07568,2.990723,-4.516602,92.06543,2.389526,-114.7192,14.24167,0.09166667,-0.9583332999999999,1
148173,0.06347656,0.8925780999999999,-0.08886719,-3.234863,27.28271,14.89258,91.43372,-0.7470703,-113.2526,14.23333,-2.116667,-2.183333,1
148404,0.06640625,1.786621,0.1733398,-3.540039,-9.399414,15.74707,92.40051,-1.582031,-111.0168,-44.275,-34.225,-26.6,1
148663,-0.05419922,0.8935546999999999,0.024902340000000002,-4.211426,-0.793457,-35.46143,91.17554,-1.235962,-112.2034,13.41667,-0.6666667,-0.2666667,1
148913,-0.03955078,1.058105,-0.2744141,19.77539,-4.760742,-10.43701,90.75256,2.164307,-114.6863,-42.16667,-36.45833,-24.61667,1
149223,0.1728516,0.8081054999999999,0.02050781,-11.96289,-19.77539,35.5835,91.81274,2.307129,-117.2351,15.741670000000001,-1.425,-0.6666667,1
149553,0.08251953000000001,0.9868163999999999,-0.24511719999999998,14.52637,2.01416,11.59668,90.29663,-1.208496,-115.307,31.99167,2.766667,-0.31666669999999997,1
149833,-0.1367188,0.8725586,0.022460940000000002,1.098633,11.47461,-39.0625,91.11511,-1.060181,-113.5162,14.03333,-0.2166667,0.08333334,1
150153,-0.03613281,1.098633,-0.2719727,11.1084,-6.652832,-9.58252,90.26367,2.5872800000000002,-115.8673,-42.80833,-36.63334,-23.63333,1
150463,0.19824219999999998,0.8144530999999999,0.001953125,-4.150391,-8.666992,35.46143,91.26892,2.1698,-114.7906,14.91667,-0.925,-0.5833332999999999,1
150713,0.18212889999999998,0.9233397999999999,-0.0703125,-24.59717,13.06152,-12.93945,90.7251,-0.8184813999999999,-109.9951,19.36667,-5.041667,1.4,1
150923,0.2358398,1.029785,0.144043,0.8544921999999999,-18.73779,6.347656,90.802,-2.356567,-107.9022,15.625,0.7000000000000001,0.775,1
151183,0.03466797,0.9223633,-0.12402339999999999,5.432129,-52.06299,-18.43262,89.85718,1.049194,-112.1265,13.45833,-0.5083333,-2.558333,1
151403,0.1694336,1.204102,0.1611328,1.8310549999999999,-2.563477,-27.46582,91.40076,2.384033,-115.307,-43.45833,-36.80833,-23.50833,1
151643,0.30957029999999996,0.8300780999999999,0.01904297,4.699707,28.07617,31.25,90.802,1.3348389999999999,-112.7197,15.13333,-0.9416667,-0.875,1
151930,0.1123047,0.9814453,-0.30273439999999996,14.4043,1.953125,3.356934,89.91211,-1.521606,-105.8972,-44.95,-34.54167,-29.28333,1
152193,0.3759766,1.074219,0.041015630000000004,1.159668,-9.155273,6.164551,91.4447,-3.120117,-106.1554,15.375,0.4666667,-1.816667,1
152423,-0.1606445,0.8632812999999999,-0.02392578,-2.441406,16.54053,13.48877,89.75281,0.5548096,-109.6271,-44.43333,-36.575,-26.78333,1
152723,-0.109375,0.9409179999999999,0.26220699999999997,-0.6713867,9.033203,-17.08984,91.91711,3.345337,-108.0505,19.25,-0.5333333,-0.1666667,1
152963,-0.01416016,0.8725586,-0.1367188,-0.9155272999999999,26.00098,3.234863,91.31287,-0.4284668,-102.486,14.05833,-0.525,-0.7333333,1
153233,0.1435547,0.9179687999999999,0.315918,-11.96289,-25.87891,2.868652,91.77979,-2.416992,-103.6121,-45.1,-36.58333,-27.79167,1
153503,-0.1567383,0.8291016,-0.0009765625,-5.371094,-30.63965,-21.72852,89.61548,0.7635498,-106.4355,14.93333,-2.075,-2.425,1
153783,0.1025391,1.498047,0.10058589999999999,2.929688,11.84082,-13.24463,90.39001,2.208252,-108.512,14.46667,3.633333,-0.3333333,1
154063,0.1396484,0.8525391,-0.03076172,-9.58252,22.64404,14.34326,89.61548,0.39550779999999996,-106.1938,14.21667,-1.316667,-1.825,1
154393,-0.1948242,2.128906,0.18212889999999998,-54.93164,44.12842,36.56006,90.09888,-1.175537,-101.7279,17.175,2.408333,-0.3916667,1
154703,-0.01953125,0.8481445,-0.002929688,-1.525879,-56.45752,-27.09961,87.7478,2.241211,-106.452,14.85,-0.1916667,-2.9,1
154933,0.03662109,1.104004,-0.3203125,18.43262,-11.84082,-1.037598,87.30835,2.774048,-109.0118,23.025,5.258333,0.8333332999999999,1
155153,0.28613279999999996,0.8188477,-0.002929688,5.981445,4.516602,22.46094,89.99451,0.5932617,-108.924,-43.9,-37.325,-24.075,1
155383,0.29443359999999996,0.9536133,-0.12744139999999998,-8.605957,-16.47949,-9.033203,89.25293,-2.493896,-103.4857,20.1,-1.8333329999999999,3.275,1
155633,0.01953125,0.9550780999999999,-0.007324219000000001,12.45117,-12.75635,-20.99609,90.54382,-2.598267,-103.4692,-44.45,-36.475,-25.1,1
155863,0.1992188,0.9345703,-0.1831055,-21.97266,-4.516602,6.835938,87.59949,0.5548096,-108.2483,19.125,-3.625,1.666667,1
156143,0.3081055,1.651367,0.2597656,24.04785,14.64844,-38.69629,89.41772,1.928101,-106.051,18.58333,1.658333,-0.008333334000000001,1
156371,0.04150391,0.8745117,-0.005859375,5.371094,60.30273,17.82227,88.78601,-0.5273438,-99.89868,-42.58333,-35.96667,-27.81667,1
156683,0.17382809999999999,0.8955078,0.3120117,39.24561,-68.60352,2.563477,90.39551,-2.296143,-98.58032,15.49167,0.04166667,0.325,1
156963,-0.1928711,0.8139647999999999,0.01611328,-17.82227,-19.53125,-16.29639,90.11536,1.027222,-102.5189,16.525,-2.875,-1.016667,1
157193,0.1958008,1.646973,0.1796875,14.22119,27.64893,-8.666992,90.24719,1.636963,-105.6281,16.44167,2.2,1.358333,1
157463,0.1381836,0.8789062999999999,0.0009765625,-1.7700200000000001,35.64453,10.98633,90.04395,-0.8074950999999999,-100.7941,-43.45,-34.88334,-25.18333,1
157733,0.09912109000000001,1.078613,-0.1416016,2.685547,15.50293,5.065918,88.72009,-0.9448242,-95.72937,32.83333,6.858333,2.391667,1
158013,-0.1552734,0.9101562999999999,0.08984375,-2.075195,-4.516602,-40.34424,90.69763,-1.115112,-96.69617,14.64167,-0.36666669999999996,0.44166669999999997,1
158273,0.0390625,1.17627,-0.1923828,0.9155272999999999,-30.09033,-7.69043,90.22522,1.82373,-103.7659,-42.1,-35.65,-22.325,1
158560,0.2915039,0.7905272999999999,0.01953125,-2.563477,13.73291,37.41455,92.13135,2.614746,-103.1671,-42.35833,-35.34167,-22.6,1
158860,0.07714844,1.064453,-0.2524414,4.272461,-0.12207029999999999,13.12256,91.85669,-0.46691889999999997,-93.8562,-42.8,-33.79167,-27.93333,1
159203,-0.16699219999999998,0.8764647999999999,-0.007324219000000001,-2.197266,-17.63916,-29.66309,91.59302,0.1593018,-95.32288,-42.175,-34.36666,-26.69167,1
159434,-0.1518555,0.8789062999999999,-0.08349609,-16.23535,12.20703,6.835938,89.93958,1.593018,-98.78906,20.18333,-2.866667,2.658333,1
159643,-0.0859375,0.9287109,0.1958008,-5.7983400000000005,2.746582,-3.234863,92.10938,3.114624,-98.23425,19.29167,-0.05833333,-0.05,1
159863,-0.02392578,0.8676758,-0.026367190000000002,-5.371094,37.71973,-0.12207029999999999,89.79675,-1.027222,-88.68713,-42.00834,-32.8,-32.425,1
160093,0.0703125,1.058594,-0.2226563,21.11816,20.87402,-14.4043,91.16455,0.6811522999999999,-85.11658,14.03333,5.608333,1.975,1
160373,0.1079102,1.019531,-0.06835938,7.995605,-19.34814,-21.3623,92.82349,-0.6262207,-86.36353,15.2,-0.2,-2.566667,1
160613,-0.11474609999999999,1.077148,-0.19042969999999998,5.371094,-24.23096,-9.521484,90.98328,2.202759,-93.76282,-42.3,-34.31667,-29.04167,1
160863,-0.1533203,0.9545897999999999,0.1181641,-7.202148,0.24414059999999999,0.6103516,93.23547,4.042969,-93.44971,14.49167,0.30000000000000004,-1.925,1
161123,-0.04394531,0.7910155999999999,-0.14257809999999999,-13.85498,30.2124,-4.760742,90.95581,-0.637207,-84.60571,20.475,-3.191667,1.4,1
161423,0.3525391,1.131348,0.04736328,6.835938,-25.20752,-7.995605,93.11462,-1.972046,-84.82544,15.51667,0.0,0.05833333,1
162683,0.07324219,0.9248046999999999,-0.1157227,16.23535,-47.42432,-18.43262,92.76306,2.823486,-85.16052,-38.925,-37.24166,-33.43333,1
162953,0.06884766,1.116211,-0.3139648,14.89258,8.666992,11.47461,92.52686,2.8125,-85.54504,17.80833,5.658333,0.6083333,1
163223,0.2993164,0.8613280999999999,-0.00390625,-3.90625,24.10889,19.83643,93.35632,2.15332,-83.20496,-38.20833,-37.13334,-36.15,1
163513,0.03271484,1.779297,0.2998047,26.61133,10.74219,18.18848,94.64722,-0.44494629999999996,-75.39917,16.39167,1.3,3.7,1
163843,-0.17431639999999998,0.8100586,0.0,-7.141113,-38.08594,-23.13232,92.85095,1.516113,-73.07007,-35.23333,-38.41667,-39.05833,1
164173,0.1157227,1.648926,0.2529297,19.53125,15.68604,-50.41504,94.30664,3.927612,-72.95471,19.075,-0.2833333,2.833333,1
164493,0.0078125,0.8676758,-0.07470703000000001,-1.525879,54.50439,20.62988,94.4165,0.46691889999999997,-68.52722,14.55,-2.4,-0.675,1
164673,0.03369141,0.9291992,-0.2587891,20.20264,-2.624512,7.446289,95.81726,0.1208496,-63.19885,21.45833,4.333333,-4.675,1
164903,-0.1875,0.8515625,-0.1015625,-21.60645,-20.01953,-4.211426,96.64124,0.7855225,-63.04504,-30.225,-41.43333,-40.99166,1
165163,-0.1318359,0.9741211,-0.2836914,6.9580079999999995,-11.2915,5.554199,95.59204,1.565552,-67.64282,20.58333,-1.608333,2.566667,1
165413,-0.11621089999999999,0.8261719,0.18261719999999998,-32.65381,3.662109,-17.57813,97.04773,4.581299,-67.86804,17.34167,0.40833329999999995,-0.675,1
165633,-0.03125,0.7954102,-0.11279299999999999,-4.02832,28.44238,-15.80811,94.46594,-0.8184813999999999,-57.32666,-27.81667,-40.025,-44.71667,1
165873,-0.0034179690000000003,2.164063,0.21728519999999998,-6.9580079999999995,42.72461,34.42383,96.91589,-1.120605,-52.64099,11.14167,1.883333,0.45,1
166113,-0.3388672,0.8598633,0.09863281,-17.27295,13.06152,-24.16992,94.43848,0.2307129,-50.96008,15.88333,-2.966667,2.758333,1
166333,0.1103516,1.403809,-0.02441406,14.22119,0.793457,1.953125,95.98206,2.532349,-52.44873,16.10833,3.8083329999999997,-2.95,1
166630,0.3120117,0.8100586,0.03564453,-10.62012,49.98779,14.09912,93.83423,1.466675,-51.54785,-23.4,-39.95,-45.05833,1
166933,-0.02001953,2.331543,0.2470703,18.06641,22.27783,22.76611,96.60828,-0.7305908,-43.41248,18.025,1.9916669999999999,3.008333,1
167243,-0.1367188,0.7548828,-0.06884766,2.13623,-62.07275,-22.09473,93.16406,2.285156,-48.99902,-23.75,-39.975,-43.56667,1
167543,0.15136719999999998,1.055176,0.2607422,24.10889,-4.943848,-28.01514,96.79504,4.086914,-51.15784,-22.40833,-41.96667,-41.23333,1
167803,0.29492189999999996,0.8510742,-0.01074219,-4.333496,57.9834,17.39502,95.58655,1.708374,-48.41675,13.79167,-1.85,-2.266667,1
168053,0.03271484,1.933594,0.2993164,7.141113,11.47461,34.24072,94.63074,-0.6756592,-37.01843,-19.9,-38.43333,-45.475,1
168373,0.0,0.8354492,-0.009277344,-8.056641,-16.47949,-24.10889,94.4989,1.351318,-37.66113,14.375,0.3416667,-2.45,1
168674,0.06689453000000001,1.411133,0.27099609999999996,10.0708,0.9765625,-23.01025,94.70215,3.131104,-42.07764,-18.60833,-39.49166,-43.9,1
169043,0.06982422,0.8740234,0.01025391,7.202148,39.91699,18.61572,94.67468,1.373291,-42.48962,13.60833,-0.6000000000000001,-2.133333,1
169253,-0.1411133,1.098145,0.15625,-15.19775,-1.708984,33.56934,95.87769,-2.411499,-35.27161,-19.4,-38.66667,-44.45,1
169483,-0.1679688,0.8291016,0.03808594,5.737305,1.342773,-28.93066,96.1853,-1.307373,-35.30457,15.93333,-2.183333,-0.25,1
169733,0.15869139999999998,1.080566,-0.2832031,8.911133,-6.835938,2.441406,95.53711,0.9558105,-39.24866,-19.16667,-38.925,-44.53333,1
169973,-0.2978516,0.9980469,-0.09375000000000001,10.00977,34.729,13.18359,97.16858,3.955078,-36.38123,13.575,0.5916667,0.45,1
170233,-0.18652339999999998,0.7763671999999999,-0.08496094,5.7983400000000005,60.30273,5.126953,95.38879,-1.323853,-28.10852,16.325,-2.641667,-2.741667,1
170470,-0.1259766,1.010254,0.2675781,-5.737305,16.60156,26.55029,97.89917,-2.993774,-23.47778,-13.21667,-40.33333,-45.225,1
170733,-0.2080078,0.8471679999999999,-0.04638672,-8.117676,-32.89795,-15.86914,96.57532,0.027465820000000002,-24.29077,13.4,-2.8083329999999997,-2.441667,1
170950,-0.02441406,1.19043,-0.02392578,16.47949,22.33887,4.394531,95.69641,0.6646729,-25.72449,-10.63333,-40.16667,-46.14167,1
171233,0.07421875,1.036621,0.004394531,-1.586914,11.41357,24.71924,97.61353,2.213745,-22.42859,15.35,-0.6666667,-3.175,1
171473,0.175293,1.015137,-0.1464844,2.624512,15.07568,10.13184,96.96533,-0.9942626999999999,-12.28821,-4.791667,-40.88334,-45.25,1
171763,0.3901367,0.8276367,0.2041016,11.96289,-15.86914,-2.258301,98.40454,-4.086914,-11.60706,19.70833,0.3416667,-2.383333,1
172003,-0.01416016,0.8178711,-0.09863281,-15.93018,12.45117,14.5874,96.95435,-0.19775389999999998,-14.73267,19.4,-3.766667,3.325,1
172293,-0.168457,0.7148437999999999,0.128418,0.9765625,23.31543,-17.82227,100.1349,3.290405,-13.28247,-2.683333,-42.44167,-42.13334,1
172603,0.06103516,0.8911133,-0.1337891,-9.765625,-5.92041,-13.61084,98.15735,-1.422729,-4.487915,18.91667,-2.233333,2.508333,1
172903,0.43603519999999996,0.8422852,0.1376953,8.178711,-35.7666,0.12207029999999999,99.42627,-4.279175,-4.015503,15.7,0.9583332999999999,-2.158333,1
173243,0.0004882813,0.7739258,-0.1567383,-11.23047,3.051758,12.51221,98.00354,0.2307129,-11.79932,18.64167,-2.541667,1.008333,1
173470,-0.1811523,1.090332,-0.09570313,13.12256,23.92578,12.63428,99.66248,4.11438,-12.03552,-1.95,-41.54167,-42.825,1
173723,-0.1811523,0.7675780999999999,-0.060546880000000004,7.446289,50.90332,-2.380371,98.19031,-1.5051269999999999,-4.273682,14.18333,-2.158333,-1.633333,1
173963,0.05224609,0.7905272999999999,0.2954102,2.441406,-20.44678,17.33398,98.41003,-3.823242,-1.543579,-0.8833333,-42.075,-41.76667,1
174203,-0.1171875,0.8120117,-0.046875,6.9580079999999995,-39.0625,-16.11328,98.07495,-0.7525634999999999,-3.757324,14.78333,-3.35,0.08333334,1
174463,-0.1923828,0.9594727,-0.1918945,6.774902,-19.77539,-4.394531,98.04199,-0.4394531,-6.778564,25.1,0.725,1.591667,1
174693,-0.2148438,0.859375,0.1762695,1.586914,13.24463,-6.9580079999999995,100.7007,3.592529,-5.355835,18.39167,0.15833329999999998,-3.175,1
174913,0.0234375,0.9130859,-0.1914063,3.967285,-20.44678,-10.68115,98.5199,-1.384277,-0.8074950999999999,18.425,-3.183333,0.75,1
175180,0.3925781,0.7260742,0.2475586,4.760742,-31.43311,-4.516602,97.73438,-2.9608149999999998,-4.262695,-1.308333,-42.09167,-42.20833,1
175443,-0.011230470000000001,0.8632812999999999,-0.06982422,6.103516,-33.87451,-26.18408,96.20178,0.9997558999999999,-6.47644,15.63333,-2.8,-1.891667,1
175703,0.006835938000000001,1.410645,0.1806641,26.55029,4.394531,-8.605957,97.81677,1.884155,-7.542114,1.15,-41.775,-42.11666,1
176003,0.05957031,0.9223633,-0.078125,-12.08496,46.69189,15.31982,96.11938,-0.1153564,-5.29541,0.65,-41.46667,-42.94167,1
176273,0.03173828,1.0854489999999999,-0.16699219999999998,18.24951,13.91602,14.64844,95.83374,-0.5053711,-2.125854,33.6,2.975,-2.8,1
176513,-0.2670898,0.9130859,0.03808594,-13.91602,5.7983400000000005,-22.64404,97.60803,-0.2307129,-3.345337,1.258333,-42.93333,-42.29167,1
176813,0.15625,1.10791,-0.2612305,21.60645,-5.554199,-0.9765625,98.60229,1.658936,-8.569336,23.29167,3.941667,0.1833333,1
177123,0.3779297,0.7963867,0.01855469,7.751465,19.104,23.13232,98.61877,1.620483,-6.075439,2.033333,-43.88334,-40.69167,1
177433,0.022460940000000002,1.080078,-0.19384769999999998,14.4043,-5.92041,5.737305,98.17932,0.2252197,0.5657959,16.94167,5.4,-0.1666667,1
177803,0.1845703,0.8671875,-0.12744139999999998,2.13623,-21.97266,1.89209,97.04224,3.015747,-8.415527,1.308333,-42.80833,-43.1,1
178073,0.1538086,1.125488,-0.2563477,7.141113,6.774902,-5.126953,97.48169,2.8125,-9.816284,16.66667,4.483333,1.533333,1
178314,0.2822266,0.8676758,-0.008300781,9.338379,8.605957,24.53613,96.89392,1.340332,-13.79333,-2.775,-42.85,-43.5,1
179523,0.2763672,0.8754883,0.02783203,-30.63965,-4.760742,24.96338,98.32214,4.180298,-15.37537,15.31667,-0.975,-1.591667,1
179723,0.144043,1.055176,-0.1616211,20.50781,18.06641,6.469727,96.05347,0.5877686,-10.42053,-0.9916666999999999,-41.81667,-43.70833,1
179953,0.2714844,0.6352538999999999,0.3081055,7.69043,-27.83203,-2.319336,97.14111,-2.15332,-8.778076,19.00833,0.5833332999999999,-1.891667,1
180213,-0.03662109,0.8881836,-0.04736328,-3.112793,-43.45703,-21.24023,96.78406,1.5271000000000001,-12.24426,15.15,-2.408333,-2.033333,1
180433,-0.009765625,1.162598,-0.1420898,20.01953,18.98193,2.807617,96.33911,1.851196,-13.79883,14.70833,4.475,-0.3416667,1
180730,0.10498049999999999,0.8974609,-0.07958984,-5.981445,52.85645,17.45605,97.30042,1.07666,-5.119629,2.65,-43.31667,-41.525,1
181023,0.17431639999999998,1.188477,-0.08984375,29.41895,-0.42724609999999996,-14.52637,99.81628,0.19775389999999998,-0.5603026999999999,4.275,-44.26667,-39.63334,1
181273,-0.168457,1.175781,0.01171875,-23.4375,16.54053,-29.78516,99.19556,-0.6976317999999999,-0.49438479999999996,14.69167,-1.391667,0.48333329999999997,1
181553,-0.1191406,1.013184,-0.1381836,-1.953125,-21.11816,-5.249023,96.05896,3.24646,-10.19531,0.9083334,-42.0,-44.36666,1
181853,0.15820309999999999,1.074219,0.028808590000000002,-26.36719,-0.6713867,25.26855,97.73987,3.669434,-8.981323,1.358333,-43.125,-43.59167,1
182123,0.05761719,0.8959961,-0.13916019999999998,-2.685547,-13.97705,-6.530762,96.6687,-0.01098633,-7.355347,16.55,-2.766667,1.658333,1
182383,0.2280273,0.7939453,0.2568359,0.4882813,1.403809,1.6479489999999999,97.36633,-1.19751,-5.839233,19.08333,0.9083334,-1.791667,1
182643,0.04394531,0.8745117,-0.1435547,-10.00977,16.11328,7.019043,96.87744,2.993774,-10.12939,1.8,-43.7,-44.08333,1
182993,-0.06103516,0.7485352,0.20507809999999999,-21.05713,-3.173828,-16.23535,98.08594,4.345093,-12.07947,18.85833,0.3083333,-2.475,1
183233,0.06542969,0.921875,-0.12744139999999998,1.8310549999999999,23.55957,-10.19287,96.84448,-0.5548096,-3.444214,3.216667,-44.875,-42.58333,1
183473,0.10058589999999999,1.562988,-0.028808590000000002,13.5498,-15.07568,13.61084,97.16858,-1.065674,-1.856689,12.625,5.133333,1.0,1
183743,-0.1191406,1.164063,0.05029297,-14.46533,-15.25879,-23.4375,96.31165,-0.6976317999999999,-5.630493,14.875,-0.6083333,0.2583333,1
183953,-0.08398438,0.9921875,-0.206543,2.258301,-8.544922,-2.258301,94.26819,2.307129,-9.338379,2.558333,-43.78333,-44.6,1
184213,-0.09033203000000001,0.7514647999999999,0.2480469,1.708984,7.080078,-16.6626,96.91589,4.888916,-8.311157,17.525,1.466667,-1.816667,1
184443,0.1557617,0.9165038999999999,-0.01660156,-6.347656,26.85547,13.61084,95.32288,1.1920169999999999,-8.393555,16.01667,-2.025,0.08333334,1
184674,0.005859375,1.950195,0.2729492,1.037598,5.004883,19.34814,96.66321,-0.3625488,-4.987793,12.16667,3.641667,0.5416667,1
184960,0.02392578,0.8549804999999999,-0.1020508,0.793457,-38.20801,-16.17432,95.08667,2.1698,-9.728394,1.5,-43.94167,-43.76667,1
185253,0.1635742,1.711914,0.2124023,36.19385,-5.67627,-30.82275,97.89917,3.048706,-12.02454,1.808333,-44.98333,-42.1,1
185513,0.4365234,0.7871094,0.02832031,-39.24561,0.4882813,36.01074,97.12463,3.317871,-10.63477,16.7,-0.7000000000000001,-2.991667,1
185783,0.009765625,1.170898,-0.1479492,14.09912,12.26807,4.394531,94.93835,0.9338379,-4.3396,3.633333,-43.55,-43.14167,1
186073,-0.171875,1.089844,0.028808590000000002,-10.86426,-11.41357,-28.32031,95.84473,0.24719239999999998,-6.970825,15.15,-1.15,0.1083333,1
186383,-0.060546880000000004,1.024902,-0.17041019999999998,9.460449,-23.86475,-10.49805,94.07593,3.103638,-12.19482,0.9833333999999999,-42.84167,-44.96667,1
186683,0.2114258,1.076172,0.02685547,-29.66309,11.90186,25.81787,96.35559,4.086914,-11.51917,15.89167,0.1,-0.3416667,1
186993,0.1811523,0.9716796999999999,-0.08740234,6.652832,18.98193,0.1831055,94.15283,0.8734130999999999,-6.828003,2.341667,-43.45,-43.89167,1
187303,-0.04199219,1.128906,0.08740234,-0.9765625,-7.141113,-26.30615,95.43823,-0.703125,-9.102173,14.55833,-0.9166667,0.8666667,1
187673,0.07080078000000001,1.072754,-0.2851563,11.35254,6.896973,2.563477,94.75708,2.636719,-13.47473,0.1083333,-42.875,-45.53333,1
187943,-0.08691406,1.144043,-0.01416016,7.446289,4.577637,16.60156,96.06445,4.619751,-12.4585,15.11667,-0.08333334,2.816667,1
188183,0.184082,0.8271484,-0.009277344,-23.37646,13.42773,-18.55469,92.19727,1.82373,-7.89917,3.108333,-40.84167,-46.51667,1
188413,-0.41894529999999996,1.208984,0.24462889999999998,-28.13721,8.605957,41.99219,93.31787,-0.4229736,-5.696411,15.55833,1.591667,1.216667,1
188653,-0.23779299999999998,0.9565429999999999,0.02734375,10.68115,-28.38135,-20.38574,94.47693,2.180786,-9.832764,14.475,-0.47500000000000003,-0.09166667,1
188873,0.20507809999999999,1.232422,-0.199707,3.112793,-26.12305,1.281738,93.35632,3.427734,-18.45154,-1.858333,-41.725,-48.175,1
189123,-0.1376953,0.8046875,0.22167969999999998,-8.300781,9.460449,-14.4043,93.94409,5.515137,-17.89673,16.65,0.8583333999999999,-1.325,1
189393,-0.02685547,0.9355469,-0.09033203000000001,-3.234863,32.04346,16.29639,93.86719,1.400757,-14.46899,16.25,-1.875,-1.325,1
189613,0.2041016,1.246582,-0.11865229999999999,20.93506,-3.234863,-3.90625,94.85046,0.7470703,-11.51367,12.91667,5.225,1.558333,1
189880,-0.08398438,0.8828125,-0.04541016,3.051758,-29.05273,-16.78467,95.02075,1.933594,-12.66724,0.125,-43.975,-45.45,1
190193,-0.1328125,0.8833008,-0.128418,-6.530762,-13.5498,-0.3662109,92.95532,2.60376,-15.95215,19.63333,-4.425,1.275,1
190433,0.06494141,1.140625,-0.005859375,-10.62012,-1.464844,20.99609,95.19104,4.421997,-16.474,15.625,-0.8583333999999999,0.7583333,1
190703,0.1845703,0.9492187999999999,-0.1542969,-0.42724609999999996,17.02881,-0.6713867,93.06519,0.8953857,-12.34863,-0.4666667,-42.14167,-46.075,1
190973,0.3398438,0.7192383,0.1835938,16.78467,-0.5493163999999999,-13.61084,94.97131,-2.005005,-12.33765,20.28333,0.775,-1.883333,1
191233,0.0004882813,0.9414062999999999,-0.1401367,-12.20703,5.67627,6.04248,94.57031,2.197266,-13.46375,18.51667,-3.541667,1.666667,1
191533,-0.2519531,0.7104492,0.1875,-10.74219,9.58252,-7.629395,96.08093,4.487915,-13.84827,17.75,0.49166669999999996,-3.15,1
191903,0.11865229999999999,1.11084,-0.1210938,10.55908,12.146,7.263184,95.31738,0.6481933999999999,-8.673706,0.4166667,-42.23333,-44.075,1
192153,0.2084961,0.7177734,0.2529297,8.483887,-2.685547,8.850098,97.10266,-2.373047,-7.575073,17.99167,0.3083333,-3.208333,1
192413,0.03857422,0.8046875,-0.2119141,-8.972168,-5.554199,8.300781,95.3833,2.713623,-13.84827,-1.158333,-42.08333,-45.24166,1
192653,-0.07177734,1.248047,0.006835938000000001,14.46533,13.79395,-2.807617,95.81726,2.455444,-13.71094,13.68333,3.258333,-0.6333333,1
192893,0.1601563,1.095703,-0.007324219000000001,-13.18359,19.34814,28.01514,96.43799,3.746338,-12.35413,15.44167,-1.183333,-1.033333,1
193103,0.19775389999999998,1.05127,-0.2265625,31.67725,29.23584,-5.737305,95.95459,0.2801514,-4.932861,2.116667,-42.98333,-43.93333,1
193343,0.19726559999999999,0.7192383,0.21777339999999998,13.67188,-18.9209,-1.586914,98.25623,-2.570801,-3.773804,20.69167,0.1916667,-3.333333,1
193643,0.028808590000000002,0.9155272999999999,-0.19042969999999998,-19.71436,-2.685547,1.6479489999999999,96.08093,2.779541,-10.05798,1.05,-42.45833,-46.05833,1
193893,0.05078125,1.199707,-0.09423828000000001,7.69043,1.586914,-1.342773,95.82825,2.6696779999999998,-11.48621,14.43333,3.416667,0.725,1
194123,0.11865229999999999,0.9179687999999999,-0.03417969,2.258301,37.78076,20.50781,95.1416,1.488647,-9.602051,0.7333333,-44.225,-45.44167,1
194423,0.2392578,0.9521484,-0.1772461,16.54053,14.4043,-3.845215,96.22375,1.6754149999999999,-8.926392,19.11667,-3.891667,2.458333,1
194663,-0.01269531,1.134766,-0.0625,-1.708984,3.601074,-33.02002,98.32214,-0.8294678,-9.234009,14.76667,-1.4583329999999999,-1.225,1
194933,-0.14306639999999998,0.9829102,-0.19433589999999998,1.525879,-26.18408,-3.417969,95.04272,2.175293,-12.38159,-0.1333333,-45.0,-45.8,1
196203,0.1308594,1.0625,-0.2529297,16.72363,-9.277344,-3.78418,96.57532,1.977539,-7.553101,23.56667,2.983333,0.9583332999999999,1
196473,0.3862305,0.7734375,-0.008789063,-1.342773,14.34326,18.06641,97.16858,1.812744,-6.762085,15.04167,-1.175,-1.391667,1
196783,0.06201172,1.044434,-0.21386719999999998,14.46533,-5.310059,-0.793457,96.94336,0.34606929999999997,-3.411255,16.7,5.108333,0.1666667,1
197083,-0.1879883,0.9067383,-0.03417969,-5.7983400000000005,-31.00586,-13.18359,97.18506000000001,0.8239746,-5.811768,15.44167,-2.525,-1.183333,1
197423,0.1000977,1.174316,-0.2109375,16.47949,10.19287,0.9765625,97.77832,3.175049,-11.00281,16.35833,4.041667,1.916667,1
197613,-0.004882813000000001,1.190918,-0.09912109000000001,8.239746,-3.051758,17.63916,99.11865,5.383301,-10.849,15.24167,-0.275,1.3333329999999999,1
197843,-0.09179688,0.8056641,-0.08837891,-4.272461,6.774902,-1.037598,96.71265,0.2416992,-7.805786,14.88333,-2.425,-0.375,1
198053,0.1640625,0.7744141,0.28125,27.64893,-43.5791,8.972168,96.76208,-1.312866,-10.47546,-0.1083333,-42.88334,-41.66667,1
198283,-0.08154297,0.7998046999999999,-0.08935547,1.89209,-35.70557,-17.8833,96.17981,2.219238,-12.71667,15.48333,-2.325,-1.983333,1
198533,-0.08447266,1.04834,-0.2163086,25.14648,-11.23047,-0.793457,96.10291,2.471924,-13.76038,23.98333,1.741667,2.25,1
198743,0.3046875,1.02002,-0.02539063,-27.89307,-7.202148,24.16992,99.05273,4.163818,-13.40881,2.025,-42.20833,-40.85833,1
199003,0.07421875,0.9003905999999999,-0.15820309999999999,-21.66748,8.117676,-10.68115,97.56958,0.8953857,-6.882935,17.10833,-2.408333,1.233333,1
199270,0.12744139999999998,0.7187500000000001,0.25439449999999997,-2.868652,-20.32471,12.51221,97.80029,-1.6149900000000001,-7.366333,1.475,-41.65833,-41.26667,1
199533,-0.109375,0.859375,-0.09423828000000001,1.159668,-61.76758,-18.37158,97.86621,2.554321,-12.64526,14.34167,-2.333333,-1.933333,1
199763,0.03173828,1.180664,-0.33251949999999997,17.51709,12.26807,-2.807617,99.04175,3.416748,-14.57336,1.75,-40.90833,-42.33333,1
200063,0.07666016,1.364746,-0.1538086,-0.793457,-2.563477,30.88379,99.25598,5.619507,-14.03503,15.24167,-0.75,-0.35000000000000003,1
200303,0.21386719999999998,0.8999022999999999,-0.1381836,11.2915,16.23535,-7.8125,96.86646,1.680908,-8.679199,18.55,-2.683333,2.341667,1
200573,0.184082,1.07959,0.0004882813,0.6103516,-2.807617,-22.3999,98.10791,-0.8789062999999999,-8.074951,2.925,-40.125,-43.075,1
200860,-0.20947269999999998,0.875,-0.15917969999999998,-12.51221,2.197266,5.554199,95.24597,2.955322,-10.47546,3.325,-37.91667,-46.125,1
201153,0.08251953000000001,1.138184,0.24121089999999998,-5.310059,-14.52637,-16.8457,97.7179,4.5593259999999995,-11.0907,18.21667,-0.49166669999999996,2.733333,1
201443,-0.08007813,0.8549804999999999,-0.05419922,3.78418,14.83154,8.728026999999999,96.45996,0.3570557,-9.404297,14.34167,-1.9916669999999999,-1.575,1
201670,-0.01611328,0.8125,0.33300779999999996,2.258301,9.82666,31.12793,98.18481,-0.7580566,-5.987549,2.983333,-40.15833,-44.54167,1
201923,-0.2519531,0.8530272999999999,-0.06494141,-3.356934,-52.91748,-9.094238,97.27295,2.076416,-7.531128,13.975,-2.083333,-2.725,1
202163,0.09960938,1.378906,0.11425779999999999,10.43701,28.44238,-12.20703,95.45471,3.746338,-11.78284,2.975,-37.88334,-47.38334,1
202403,0.21728519999999998,1.191895,0.08398438,2.990723,-7.69043,27.34375,96.37207,4.202271,-9.085693,15.45833,-1.041667,-0.275,1
202673,0.07958984,0.9545897999999999,-0.05126953,-10.62012,-24.6582,-2.01416,95.81177,-0.1098633,-6.49292,17.04167,-1.725,0.9,1
202893,0.2070313,1.161621,-0.1357422,17.15088,1.220703,-12.63428,96.43799,0.2911377,-6.778564,12.49167,6.866667,1.341667,1
203113,-0.07421875,0.8994141,-0.10888669999999999,2.807617,-23.49854,-14.52637,96.06995,1.851196,-2.9608149999999998,14.90833,-1.066667,-0.7833333,1
203381,-0.01806641,1.174316,-0.23730469999999998,7.202148,17.51709,-6.591797,96.14685,3.147583,-1.8731689999999999,8.75,-40.14167,-45.00834,1
203643,-0.1342773,1.010254,0.01318359,-9.216309,4.272461,26.61133,96.48743,4.740601,-1.851196,14.21667,-0.1416667,-0.625,1
203903,0.2416992,1.004883,-0.07324219,-2.01416,-8.911133,-8.239746,94.6637,0.7910155999999999,-0.5932617,7.225,-41.44167,-44.975,1
204323,-0.1040039,0.9296875,-0.005371094000000001,5.249023,-18.06641,-16.11328,93.82324,1.7028809999999999,-3.153076,6.85,-40.88334,-46.31667,1
204593,0.1210938,1.117188,-0.19824219999999998,11.41357,-7.141113,7.8125,93.84521,1.994019,-3.636475,6.583333,-41.875,-45.6,1
204883,-0.1772461,0.9560546999999999,-0.004394531,-0.3051758,2.502441,6.286621,95.9436,3.427734,-1.428223,13.90833,1.45,-0.31666669999999997,1
205133,0.2612305,0.8784179999999999,-0.03173828,-17.33398,1.281738,-16.11328,93.6969,-0.3900146,3.724365,16.775,-3.891667,1.741667,1
205423,0.3842773,0.8393554999999999,0.1098633,5.493164,0.793457,-15.07568,96.08093,-2.730103,7.141113,15.01667,0.8833333,-0.4166667,1
205743,-0.08251953000000001,0.9072266,-0.10644529999999999,-19.83643,13.67188,10.74219,94.04297,1.219482,3.444214,9.475,-43.34167,-43.13334,1
206063,-0.15820309999999999,0.8833008,0.1708984,-10.13184,21.85059,-5.859375,96.16882,2.905884,4.3396,15.71667,0.8166667,-1.733333,1
206293,0.08154297,0.9682617,-0.03466797,-18.73779,69.51904,17.45605,94.94934,-2.06543,11.27197,15.54167,-2.058333,-0.4666667,1
206513,0.25439449999999997,1.102051,-0.1132813,29.41895,11.65771,-21.66748,94.89441,-0.9063721,18.29773,15.04167,-44.725,-35.54167,1
206743,0.009277344,1.033203,0.06591797,7.324219,-0.6713867,-33.38623,95.52063,-1.6754149999999999,20.76965,15.4,-1.158333,-0.5750000000000001,1
206993,0.1655273,0.7929687999999999,-0.07226563,2.563477,-9.58252,12.3291,94.38904,1.257935,16.22131,19.2,-3.2,1.633333,1
207203,-0.21875000000000003,0.8339844,0.1538086,-5.615234,10.31494,0.9765625,97.64648,2.8125,18.86353,17.55,-44.25,-33.95,1
207453,-0.01269531,0.9116211,-0.04833984,-6.9580079999999995,43.27393,12.57324,94.94385,-0.8898925999999999,22.02209,14.6,-0.3416667,-2.558333,1
207730,-0.1303711,1.6845700000000001,0.17871089999999998,-9.155273,21.60645,25.32959,96.31165,-0.736084,25.21912,16.19167,-45.50834,-32.0,1
207993,-0.2729492,0.8959961,0.06445313,-7.8125,-14.64844,-22.03369,95.08667,-0.3900146,22.32422,15.58333,-1.491667,-0.3833333,1
208223,-0.1362305,0.8364258,-0.09423828000000001,-17.15088,-3.234863,11.84082,94.61975,1.8457029999999999,17.13867,18.53333,-4.766667,4.15,1
208463,-0.2460938,0.918457,0.03955078,-2.746582,12.45117,-0.4882813,98.22327,3.773804,14.68872,13.54167,0.6333333,-3.108333,1
208763,0.1489258,0.9277344,-0.1708984,-28.86963,4.821777,-15.25879,94.44946,-1.010742,22.5,17.38333,-2.916667,1.441667,1
209033,0.29394529999999996,0.7690429999999999,0.05712891,3.601074,-21.30127,-18.9209,95.13611,-2.285156,22.54944,15.575,-45.46667,-33.08333,1
209303,0.16601559999999999,0.9155272999999999,-0.1054688,8.422852,-20.56885,-7.507324,94.69666,2.010498,19.30298,14.39167,-1.733333,-1.791667,1
209563,-0.20507809999999999,0.8696288999999999,0.24462889999999998,4.272461,28.9917,-4.02832,97.08618,3.977051,21.32446,18.58333,1.266667,2.641667,1
209893,-0.06347656,0.8701171999999999,-0.1367188,7.995605,-11.77979,1.037598,95.59204,-0.7305908,24.37866,13.83333,-1.9916669999999999,-0.40833329999999995,1
210234,0.024902340000000002,1.037598,0.09033203000000001,7.263184,3.112793,-34.91211,96.3501,-1.889648,23.01636,16.39167,-45.55,-31.225,1
210493,0.1376953,0.9062500000000001,-0.1567383,-4.821777,1.8310549999999999,3.601074,95.28442,1.862183,20.25879,15.34167,-2.783333,-0.85,1
210743,-0.04394531,0.8256836,0.2583008,-15.13672,7.568359,-23.07129,97.14661,3.949585,19.98413,18.775,-43.13334,-32.46667,1
210983,0.2167969,0.8789062999999999,-0.02392578,-7.8125,54.50439,16.29639,95.72937,0.01098633,22.494510000000002,14.0,-2.3,1.55,1
211233,0.2084961,1.342285,0.07128906,41.62598,-5.249023,2.197266,97.08618,-1.18103,26.94397,16.99167,-45.78333,-28.65833,1
211483,-0.1533203,1.144043,0.03320313,-6.347656,12.93945,-38.87939,97.32239,-2.120361,27.61414,14.71667,-1.925,0.4,1
212713,-0.246582,0.921875,0.06835938,-2.563477,-2.258301,-17.57813,96.97632,-1.087646,27.83936,16.69167,-1.816667,-0.1333333,1
212983,0.1767578,1.116211,-0.20996089999999998,5.371094,-2.685547,-7.751465,96.92688,0.8184813999999999,22.08801,18.43333,3.525,1.316667,1
213243,-0.08642578000000001,1.083496,-0.04541016,5.67627,7.751465,8.666992,97.97058,2.828979,24.41711,14.4,0.1083333,0.7916667,1
213453,0.2402344,0.8867187999999999,-0.0703125,-11.53564,10.55908,-18.18848,95.18005,-1.010742,31.48132,17.8,-44.875,-27.2,1
213743,-0.11669919999999999,0.8793945,0.3691406,19.89746,2.807617,41.44287,97.16309,-2.850952,32.83264,17.775,-0.5583332999999999,0.8,1
213983,0.2265625,0.8481445,-0.168457,-13.24463,-46.63086,6.530762,96.9104,1.829224,24.98291,17.46667,-44.70833,-29.05833,1
214273,0.02734375,0.7495117,0.2460938,-9.460449,3.601074,-21.11816,98.26721,2.422485,23.35693,18.80833,-0.4166667,-1.133333,1
214583,-0.0625,0.8574219,-0.1367188,4.02832,14.4043,-10.68115,96.70715,-1.5271000000000001,33.28857,18.59167,-45.26667,-24.35833,1
214873,0.2880859,0.7324219,0.1923828,8.972168,-31.25,2.197266,97.48718,-3.603516,34.21692,19.58333,0.7000000000000001,-1.55,1
215203,0.07714844,0.8032227,-0.09082031,-12.87842,9.277344,10.98633,96.828,1.549072,24.47205,20.21667,-3.558333,2.233333,1
215503,-0.234375,0.8764647999999999,-0.01318359,0.9155272999999999,-16.11328,-1.403809,99.09119,4.125366,23.07129,11.68333,0.8916666,-0.9,1
215873,-0.02294922,1.007324,-0.24414059999999999,5.310059,-4.638672,8.117676,97.24548,-0.6591796999999999,26.17493,17.875,-45.64167,-27.38333,1
216123,0.26220699999999997,0.9150391,0.04296875,-0.24414059999999999,-13.73291,-6.835938,98.31665,-2.230225,25.17517,14.95833,-0.24166669999999998,0.125,1
216383,-0.17480469999999998,0.9379883,-0.18261719999999998,-2.502441,-12.75635,5.371094,96.8335,0.9063721,20.97839,17.69167,-45.34167,-30.475,1
216613,0.06298828000000001,0.9248046999999999,0.2832031,-1.586914,-2.990723,-37.35352,99.44275,4.103394,21.03882,21.00833,-1.5833329999999999,1.25,1
216853,0.3066406,0.9013671999999999,-0.09667969,18.18848,62.5,14.03809,98.45398,0.9613037,24.81262,13.6,-0.6166667,1.45,1
217093,0.168457,1.2416989999999999,-0.09863281,19.47021,-7.751465,-9.094238,99.17358,-0.1153564,32.13501,12.725,5.025,1.191667,1
217373,-0.04833984,1.1166989999999999,0.01806641,-15.44189,-2.807617,-26.97754,98.9209,-1.356812,31.57471,14.4,-0.5166666999999999,0.125,1
217600,-0.09423828000000001,1.072266,-0.2392578,14.83154,-9.521484,-5.737305,97.25098,1.73584,25.16968,19.925,-44.46667,-27.53333,1
217863,-0.1967773,0.7744141,0.10498049999999999,-10.62012,-3.662109,-5.737305,99.12964,4.619751,25.13672,15.775,0.075,-3.941667,1
218080,0.1342773,0.8666992,-0.09326172,-5.310059,-19.89746,-15.19775,97.75635,0.7580566,27.02637,19.96667,-44.63334,-26.74167,1
218393,-0.056640630000000004,1.188965,0.1801758,-4.638672,-5.92041,39.67285,97.88818,-1.950073,25.55969,15.075,2.083333,-0.4,1
218633,0.1831055,0.9477538999999999,-0.1323242,4.760742,-39.24561,-10.55908,96.28967,2.384033,20.09399,14.5,-1.425,-2.35,1
218903,0.05566406,1.090332,0.19726559999999999,11.23047,1.403809,-26.97754,98.45398,3.543091,20.14343,20.34167,-43.85833,-29.64167,1
219173,0.2617188,0.8315429999999999,0.02441406,-0.3051758,22.2168,21.30127,96.79504,2.032471,20.51147,14.89167,-0.7666666999999999,-0.01666667,1
219413,0.05761719,1.410645,0.08007813,26.00098,-1.037598,11.35254,96.64124,-0.027465820000000002,23.45581,17.58333,-45.78333,-29.35,1
219733,-0.06835938,0.8515625,0.041015630000000004,-3.723145,-24.16992,-17.45605,95.76782,0.7800292999999999,22.89001,14.90833,-3.133333,-1.8,1
220053,-0.022460940000000002,1.208008,-0.04833984,36.13281,-2.258301,-4.577637,97.41577,1.994019,21.84082,13.95,3.425,-2.25,1
220373,0.109375,0.9873046999999999,-0.1538086,-14.77051,39.55078,13.97705,99.01978,-0.06591797,25.84534,14.79167,-1.733333,-0.8666667,1
220613,-0.1923828,2.129883,0.04345703,-29.66309,49.19434,38.0249,100.0085,-1.049194,29.30603,17.725,-47.5,-22.825,1
220853,-0.38134769999999996,0.8178711,0.09570313,-16.6626,2.868652,-23.49854,97.64648,-0.9063721,32.57996,16.85833,-2.0,-0.5666667,1
221083,-0.1870117,0.9067383,-0.1455078,-16.78467,4.150391,7.873535,96.37756,1.208496,26.65283,18.21667,-3.3,2.741667,1
221303,-0.13134769999999998,1.080566,-0.08496094,18.98193,9.460449,23.92578,98.60229,4.048462,22.340700000000002,20.48333,-45.34167,-26.61667,1
221553,-0.11621089999999999,0.8115234,-0.03759766,6.408691,33.75244,-4.760742,97.19604,-0.8404541,28.119510000000002,15.4,-2.55,-0.7583333,1
221831,-0.07177734,0.8798828,0.2719727,21.97266,-4.516602,31.37207,98.42651,-2.532349,30.26733,18.06667,-47.46667,-22.225,1
222093,-0.1499023,0.8613280999999999,-0.04150391,3.601074,-35.33936,-15.50293,98.01453,0.4998779,27.46033,15.01667,-2.866667,-1.475,1
222310,0.09130859,1.08252,-0.2241211,15.31982,8.789063,-1.098633,98.49243,1.384277,22.36267,19.96667,-46.15,-26.06667,1
222613,-0.08203125,1.1166989999999999,-0.08154297,9.82666,5.615234,19.83643,99.87122,4.334106,22.79114,14.55,-0.5833332999999999,1.45,1
222863,0.3144531,0.8398437999999999,-0.1845703,-19.28711,23.98682,-14.64844,97.39929,0.13732909999999998,28.25684,18.80833,-2.475,1.375,1
223133,0.2036133,0.9868163999999999,-0.0078125,10.62012,-11.41357,-20.50781,98.75061,-2.081909,30.09155,20.40833,-47.025,-22.46667,1
223404,0.22119139999999998,0.8627929999999999,-0.15820309999999999,-4.882813,-33.08105,1.708984,98.1958,2.548828,23.65356,16.05833,-3.566667,-0.75,1
223653,-0.1308594,0.8632812999999999,0.2070313,-1.6479489999999999,-9.82666,-10.74219,100.1074,4.828491,22.79114,23.39167,-44.73333,-26.025,1
223963,0.02832031,0.918457,-0.1044922,-5.187988,-7.507324,-1.342773,97.26196,0.7305908,22.52197,15.05833,-2.633333,0.5166666999999999,1
224283,0.1948242,0.730957,0.2832031,15.13672,-21.1792,9.216309,97.83875,-2.054443,23.44482,19.65833,1.191667,-0.7416667,1
224603,-0.01220703,0.8540038999999999,-0.09912109000000001,-20.08057,20.75195,9.765625,96.50391,2.136841,19.46228,19.45833,-3.633333,2.608333,1
224843,-0.2680664,0.8896484,0.046875,1.464844,14.09912,-7.263184,99.19556,5.07019,19.35791,22.66667,-44.4,-28.64167,1
225083,-0.1176758,0.934082,-0.1137695,-14.95361,59.38721,12.75635,97.64648,0.6427001999999999,24.29626,15.18333,-0.5750000000000001,-2.441667,1
225313,-0.002441406,1.089355,-0.23779299999999998,11.96289,17.15088,9.58252,97.89917,0.6097412,27.98218,26.81667,1.891667,-4.275,1
225533,-0.2241211,0.8916016,0.03125,-2.01416,-9.521484,-23.25439,98.44299,-0.5932617,27.43286,20.61667,-45.975,-25.0,1
225773,-0.1015625,0.8115234,-0.07617188,-19.47021,5.310059,7.751465,97.36633,1.928101,23.07129,18.96667,-3.908333,0.7916667,1
226043,0.15087889999999998,1.324707,0.206543,5.859375,2.01416,-34.5459,99.14063,3.433228,22.55493,17.45,-0.3083333,0.625,1
226263,-0.12060549999999999,0.8818359,-0.07177734,-4.394531,28.93066,7.873535,97.69043,0.1812744,27.07031,20.01667,-44.725,-25.63333,1
226513,0.0703125,1.080078,-0.2612305,12.02393,-7.8125,-2.990723,98.45398,0.6317138999999999,26.64185,14.75833,5.858333,1.95,1
226750,-0.1728516,0.8603516,0.002441406,-9.094238,-26.97754,-15.01465,97.51465,0.5328369,25.60364,19.20833,-43.41667,-27.04167,1
227033,-0.19775389999999998,0.9165038999999999,-0.2338867,0.6713867,-16.72363,-1.220703,96.27319,1.40625,22.84058,24.68333,0.8083332999999999,1.883333,1
227283,0.1875,1.099121,-0.01611328,-18.43262,-4.089355,24.23096,98.93188,3.422241,23.62061,18.825,-41.81667,-27.3,1
227573,0.07080078000000001,1.077637,-0.1713867,8.666992,8.972168,-2.13623,96.97632,0.9887695,28.98743,19.175,-40.975,-25.775,1
227853,0.1708984,0.7382812999999999,0.394043,-0.1831055,-30.27344,35.40039,97.45972,-2.878418,32.0636,18.725,1.416667,0.625,1
228083,0.1025391,0.7788086,-0.08447266,-0.6713867,-5.126953,14.89258,97.10266,2.329102,22.41211,17.64167,-42.06667,-29.68333,1
229393,0.06201172,1.150879,-0.17382809999999999,18.00537,-17.15088,-10.0708,98.05847,1.867676,25.13672,25.28333,2.308333,3.975,1
229733,0.3764648,0.9174804999999999,0.04833984,-27.64893,-6.103516,28.19824,99.67896,3.806763,24.20837,16.38333,-1.4,-1.658333,1
230033,0.06494141,1.057617,-0.17871089999999998,14.89258,18.37158,7.263184,98.2782,0.9722900000000001,30.01465,33.25834,3.25,2.108333,1
230263,0.4179688,0.8647461,0.1079102,8.666992,-21.42334,-10.00977,99.12415,-2.406006,29.94873,15.96667,0.4,-2.083333,1
230483,-0.09521484000000001,0.8208008,-0.09472656,-18.55469,-6.04248,8.605957,97.16309,1.933594,24.35669,19.74167,-46.30833,-28.05833,1
230723,0.03710938,1.453613,0.1645508,34.30176,-7.019043,-32.53174,99.03076,2.043457,22.02209,13.991670000000001,1.625,-1.283333,1
230973,0.4150391,0.8725586,0.01904297,-30.09033,14.95361,34.85107,98.69019,3.922119,22.14294,16.78333,-2.241667,-3.158333,1
231173,0.0546875,1.044922,-0.1713867,18.00537,1.464844,6.469727,97.27844,0.5493163999999999,29.66858,20.30833,-46.89167,-24.71667,1
231423,0.2822266,0.6967772999999999,0.24121089999999998,5.981445,-13.48877,8.850098,99.35486,-2.702637,31.11877,17.84167,-0.3416667,-2.2,1
231693,-0.03808594,0.9179687999999999,-0.13476559999999999,2.868652,-60.79102,-16.47949,98.86047,1.433716,27.64709,12.94167,-2.2,-1.225,1
231913,0.08691406,1.419922,0.1435547,17.21191,19.59229,-38.63525,100.4535,2.872925,23.37341,16.90833,0.6666667,-1.533333,1
232180,-0.05957031,0.9121094,-0.1040039,-14.22119,25.81787,10.86426,97.86072,0.43396,26.21887,19.78333,-47.2,-25.38333,1
232493,0.09472656,1.057129,-0.2041016,15.68604,14.95361,4.943848,97.84973,1.120605,25.90576,26.53333,1.891667,-5.866667,1
232733,-0.3188477,0.8955078,0.07910156,-18.49365,-0.6713867,-16.17432,98.15735,-0.2087402,27.43835,16.625,-2.341667,0.75,1
233003,0.2319336,1.061035,-0.2041016,20.26367,-17.57813,2.563477,98.10242,1.884155,20.08301,19.4,-47.35,-27.83333,1
233263,-0.20605469999999998,1.05127,-0.05761719,19.9585,16.35742,15.68604,100.481,4.328613,21.67053,13.58333,-0.04166667,2.183333,1
233533,0.2768555,0.8408203,-0.15087889999999998,-5.310059,7.93457,-15.50293,97.80029,0.49438479999999996,29.0863,18.49167,-1.375,2.633333,1
233864,0.1025391,1.1166989999999999,0.04003906,4.333496,-22.27783,-27.70996,100.849,-1.203003,26.73523,14.19167,-1.391667,-0.2833333,1
234163,-0.1708984,0.9575195,-0.19433589999999998,2.319336,-5.432129,-12.26807,98.50342,2.614746,20.154420000000002,19.91667,-2.533333,2.525,1
234473,0.17871089999999998,1.212402,-0.04833984,-32.2876,0.3662109,16.90674,99.68994,6.542358,18.58337,14.975,-0.3416667,-0.9333332999999999,1
234713,0.2192383,0.9902344,-0.14697269999999998,8.850098,-0.6713867,4.638672,97.49817,1.94458,19.51172,19.35,-46.95,-28.85833,1
234943,0.3071289,0.8071288999999999,0.2636719,4.638672,-15.625,-0.8544921999999999,99.11865,-1.752319,20.44006,19.40833,-0.075,-0.5083333,1
235183,-0.07861328000000001,0.8310546999999999,-0.1079102,-5.554199,-37.04834,-19.47021,97.73987,2.532349,18.88,13.68333,-2.708333,-1.391667,1
235403,-0.046875,1.485352,0.1962891,39.36768,8.666992,-20.50781,99.81079,3.262939,17.32544,20.46667,-46.55,-29.35,1
235643,0.34912109999999996,0.965332,0.05419922,-19.16504,10.19287,26.85547,98.72864,3.251953,18.57788,16.075,-2.083333,-2.641667,1
235923,0.07421875,0.9111328,-0.08105469,-5.615234,-8.605957,-13.18359,97.67395,0.5383300999999999,25.31799,18.96667,-4.225,0.49166669999999996,1
236143,0.2983398,0.8486328,0.07763672,-0.3051758,-17.76123,-10.62012,99.18457,-1.829224,25.9552,14.39167,0.8,1.141667,1
236423,-0.16650389999999998,0.8183594,-0.04785156,-26.9165,0.9765625,6.774902,96.5918,2.515869,19.62158,20.20833,-46.20833,-30.43333,1
236723,0.2353516,1.290527,0.2900391,14.46533,-18.55469,-39.00146,98.70667,3.2958979999999998,17.55066,16.725,-0.725,2.191667,1
236963,-0.128418,0.8544921999999999,-0.04589844,-13.85498,46.93604,11.16943,96.92688,0.19226069999999998,21.34644,15.36667,-2.275,-2.175,1
237233,-0.21386719999999998,0.9233397999999999,0.265625,6.713867,14.89258,32.04346,98.86597,-1.466675,23.59863,17.81667,-48.68333,-25.86667,1
237493,-0.1689453,0.8569336,-0.01660156,-2.075195,-17.33398,-16.78467,98.43201,0.1318359,23.60962,16.6,-3.125,-0.7416667,1
237753,-0.015625,1.226563,-0.1040039,15.50293,16.47949,-4.638672,98.43201,1.906128,20.33569,20.55833,-46.68333,-27.46667,1
238063,0.1694336,0.9697266,-0.09033203000000001,0.9765625,53.03955,16.23535,98.39905,1.126099,23.79639,14.825,-1.3333329999999999,-0.6083333,1
238383,0.15478519999999998,1.319336,0.04296875,24.41406,-2.990723,-2.685547,99.06372,-0.5438232,30.86609,11.65,4.466667,1.316667,1
238703,-0.03613281,0.8627929999999999,-0.09130859,-6.164551,-56.45752,-25.32959,98.30566,1.30188,22.63184,14.95833,-2.433333,-1.133333,1
238930,0.06445313,1.147461,-0.2348633,9.033203,16.47949,2.380371,97.89368,2.208252,17.76489,20.09167,-46.39167,-29.38333,1
239203,0.1518555,1.263184,-0.03710938,-18.43262,7.202148,7.446289,98.22876,4.158325,18.33618,15.9,-0.1333333,0.3416667,1
239423,-0.07568359,0.8852538999999999,-0.12402339999999999,11.2915,6.286621,-3.845215,97.74536,-0.38452149999999996,24.17542,15.0,-2.408333,1.316667,1
239633,0.0390625,0.7475586,0.2836914,6.408691,-5.615234,17.39502,98.59131000000001,-2.850952,27.47681,17.91667,-48.625,-24.15,1
239873,-0.11083979999999999,0.8388671999999999,-0.06347656,-1.7700200000000001,-27.40479,-18.43262,97.77283,0.7690429999999999,26.07605,14.64167,-2.45,-1.591667,1
240143,-0.08544922,1.041016,-0.2182617,12.63428,-5.92041,-4.272461,97.50366,1.5271000000000001,24.19189,21.10833,0.24166669999999998,3.216667,1
240373,0.18261719999999998,1.088867,0.030273440000000002,-14.5874,-10.86426,32.22656,99.19556,2.6477049999999998,24.39514,15.075,-1.85,-1.683333,1
240633,0.06152344,0.9165038999999999,-0.07568359,-3.4790039999999998,-5.554199,-10.19287,97.88269,-0.01647949,27.53174,18.05,-2.458333,1.683333,1
240843,0.015136720000000001,1.878906,0.1958008,10.31494,14.28223,23.37646,99.47021,-0.5603026999999999,28.64685,12.80833,2.325,1.383333,1
241073,0.1079102,0.9248046999999999,-0.08349609,10.00977,-50.59814,-17.15088,98.09692,1.571045,26.06506,14.575,-1.666667,-3.158333,1
241373,0.0625,1.583008,0.1811523,24.23096,-0.7324219,-41.99219,98.95386,2.757568,24.41162,22.14167,-45.93333,-24.61667,1
241663,-0.1333008,0.9052734,-0.12402339999999999,-7.202148,43.51807,13.85498,97.64099,-0.1647949,29.11377,14.78333,-1.141667,-2.3,1
241973,-0.1655273,1.040039,0.2402344,3.90625,3.356934,39.24561,98.63525,-2.367554,33.71155,18.8,-48.54167,-19.63333,1
242273,0.2519531,0.9638671999999999,-0.1381836,-3.356934,-29.23584,-7.69043,97.86072,1.422729,30.2124,21.35,-46.85,-21.81667,1
242553,0.1416016,1.083496,-0.1933594,14.52637,-2.807617,5.493164,97.66846,0.14282229999999999,31.53076,24.08333,3.508333,1.341667,1
242803,0.347168,0.8276367,0.06152344,0.6713867,42.3584,21.1792,98.83301,-0.1538086,38.4082,14.05,-1.075,-0.49166669999999996,1
243143,-0.0034179690000000003,0.9882812999999999,-0.2583008,17.82227,4.211426,3.173828,98.41553,-2.658691,48.10364,32.425,2.566667,-5.116667,1
243353,0.33349609999999996,0.8857421999999999,0.04394531,7.751465,-5.615234,-11.35254,99.99756000000001,-4.916382,49.85596,14.28333,1.916667,-1.325,1
243553,0.1279297,0.9750977,-0.1357422,16.90674,-52.67334,-7.507324,98.56384,-1.170044,48.22998,15.51667,-3.816667,-1.683333,1
243763,0.0625,1.047852,-0.1870117,20.87402,-6.530762,-5.615234,99.85474,-1.09314,46.86768,21.875,3.366667,1.258333,1
243983,0.3608398,0.7812500000000001,0.06152344,4.577637,17.02881,23.19336,99.37683,0.0604248,46.79626,21.275,-46.95,-9.891666,1
244243,0.2558594,0.8051758,-0.1381836,-20.81299,7.324219,-18.12744,97.94861,-1.07666,51.49841,20.50833,-1.283333,0.8250000000000001,1
244483,0.01806641,1.030273,0.09912109000000001,-12.45117,6.835938,-5.554199,99.56909,-1.82373,50.69092,14.41667,0.225,1.525,1
245753,0.47509769999999996,0.9169921999999999,-0.12207029999999999,34.66797,-49.86572,-20.69092,100.6952,-3.78479,58.23853,15.56667,1.308333,-2.35,1
246003,-0.1123047,1.054199,-0.2392578,-4.943848,9.338379,6.225586,99.32739,0.2307129,50.80627,21.30833,-46.6,-8.591666,1
246253,0.07080078000000001,1.151367,0.22949219999999998,5.004883,-19.28711,-27.03857,101.8927,2.949829,50.76233,18.94167,-1.208333,-0.125,1
246503,-0.1040039,0.7836913999999999,-0.1235352,5.554199,14.34326,-2.990723,98.84399,-1.598511,56.31042,20.23333,-46.63334,-5.508333,1
246773,0.1323242,1.002441,-0.3081055,4.089355,-5.249023,-1.708984,97.91565,-0.1647949,56.39832,20.725,5.175,-4.275,1
247013,-0.2114258,0.8637695,0.01367188,-1.281738,-24.4751,-8.056641,96.50391,-0.5493163999999999,54.58557,21.15,-46.975,-9.325,1
247303,0.1376953,1.500488,-0.04199219,25.57373,16.54053,-8.483887,97.25098,0.5108642999999999,49.96582,13.66667,3.483333,-1.3333329999999999,1
247623,0.11279299999999999,0.9140625,-0.04052734,-3.662109,52.18506,15.68604,96.90491,-0.4998779,54.66248,19.80833,-47.35833,-6.4,1
247933,-0.3588867,1.266113,0.28564449999999997,-41.50391,1.464844,50.59814,98.54187,-3.273926,59.28772,14.48333,0.4666667,0.8083332999999999,1
248303,-0.1928711,0.7915038999999999,-0.01953125,-36.43799,24.90234,5.371094,96.49292,-0.2087402,56.74988,20.33333,-47.28333,-6.575,1
248553,0.09179688,1.251465,0.17871089999999998,15.68604,16.47949,-33.3252,99.55261,2.433472,56.74988,14.625,0.125,1.45,1
248843,-0.2724609,0.8212891,-0.046875,-6.9580079999999995,13.97705,10.31494,97.30591,-1.340332,61.7926,14.51667,-1.966667,-4.758333,1
249073,0.01904297,1.010254,-0.2529297,17.27295,7.629395,-2.685547,97.11914,-0.9008788999999999,60.68848,20.16667,6.183333,-1.791667,1
249293,0.3779297,0.8994141,-0.01220703,16.41846,-33.75244,-26.67236,97.98157,-2.823486,59.18884,15.075,-0.04166667,-0.625,1
249503,-0.11865229999999999,0.8007812999999999,-0.03222656,-30.2124,9.277344,6.9580079999999995,95.61401,1.3623049999999999,51.23474,21.76667,-47.06667,-10.25,1
249743,0.05517578,1.098145,0.4077148,5.126953,17.33398,-45.41016,98.48694,4.625244,53.02002,18.18333,-1.55,2.225,1
250023,0.3706055,0.8935546999999999,0.007324219000000001,-2.13623,29.54102,19.83643,98.49792,1.499634,53.25623,15.04167,-1.091667,1.766667,1
250243,0.006347656,1.02002,-0.2324219,21.78955,2.685547,2.258301,98.15186,-0.1208496,58.71094,15.06667,5.941667,2.033333,1
250510,-0.2421875,0.8325195,0.01025391,-2.990723,-29.54102,-13.30566,97.10266,0.07141113,58.20007,20.55833,-46.8,-4.533333,1
250823,-0.2163086,0.9042969,-0.1518555,-9.216309,-9.338379,9.338379,96.06995,0.9118651999999999,53.62976,19.81667,-2.15,3.575,1
251053,-0.001953125,1.118652,-0.0546875,6.164551,2.13623,20.26367,99.83826,2.900391,51.98181,15.05,-0.5833332999999999,0.8583333999999999,1
251333,0.1962891,0.8920897999999999,-0.159668,-1.8310549999999999,32.16553,-16.8457,97.02576,0.1812744,60.11719,19.25,-46.875,-2.3,1
251593,0.1318359,0.7353516,0.378418,24.23096,-31.67725,13.85498,98.01453,-3.02124,61.10046,18.9,0.44166669999999997,-1.558333,1
251853,0.09667969,0.8808594,-0.1762695,-4.333496,-1.525879,4.943848,97.85522,1.235962,56.12366,20.70833,-46.84167,-4.308333,1
252163,0.017089840000000002,0.8491211,0.2109375,-3.967285,19.04297,-30.82275,99.87122,4.026489,55.849,18.85,-1.116667,0.1166667,1
252483,-0.1396484,0.8149413999999999,-0.07421875,10.62012,17.21191,-11.77979,98.15735,-1.433716,67.12646,16.4,-2.4,-0.1916667,1
252803,0.09814453000000001,0.7485352,0.28662109999999996,8.239746,-34.66797,17.63916,98.32764,-3.466187,65.30273,19.5,0.8083332999999999,-0.9166667,1
