Timestamp,AccX,AccY,AccZ,GyroX,GyroY,GyroZ,AngX,AngY,AngZ,MagX,MagY,MagZ,Tag
0,0.01464844,1.013184,-0.08886719,-2.319336,-1.8310549999999999,-1.403809,95.0592,2.290649,101.0852,16.8,-1.125,-0.225,1
340,0.02978516,0.9868163999999999,-0.06152344,-6.225586,1.037598,-3.967285,93.47717,2.2796629999999998,100.7996,14.73333,-36.68333,8.033334,1
580,-0.017089840000000002,0.9985352,-0.02050781,-6.469727,2.197266,-3.417969,92.13135,2.828979,101.5686,16.91667,-0.1333333,-0.5916667,1
830,-0.01416016,0.9951171999999999,0.002441406,-3.173828,0.9155272999999999,-1.220703,91.39526,3.120117,101.8213,17.06667,0.03333333,-0.2083333,1
1030,-0.017089840000000002,0.9995117,0.002929688,-0.42724609999999996,0.6103516,-1.037598,91.09314,3.235474,101.9366,17.05833,0.05,0.008333334000000001,1
1230,-0.011230470000000001,1.018066,-0.009277344,-3.845215,-4.821777,-4.211426,90.8075,3.339844,101.9641,16.86667,-0.1916667,-0.9,1
1440,-0.030273440000000002,0.9863280999999999,0.05224609,-1.7700200000000001,0.4882813,-0.42724609999999996,89.75281,3.614502,101.9476,16.80833,0.9416667,0.05833333,1
1650,-0.02001953,1.006348,0.005371094000000001,4.089355,-0.8544921999999999,0.42724609999999996,89.76929,3.55957,101.629,17.125,-0.025,0.31666669999999997,1
1900,-0.01855469,1.0,0.006347656,0.42724609999999996,-0.793457,-0.9155272999999999,90.36804,3.383789,101.3434,15.05833,-37.43333,6.675,1
2200,-0.01953125,0.9995117,0.001953125,0.12207029999999999,-1.098633,-0.793457,90.43396,3.411255,101.1621,17.05833,0.06666667,0.03333333,1
2460,-0.01611328,0.9990234,0.006347656,0.5493163999999999,-2.197266,-1.037598,90.4834,3.416748,100.838,17.06667,0.09166667,0.04166667,1
2770,-0.01855469,0.9995117,0.0,0.5493163999999999,-1.037598,-0.6713867,90.50537,3.427734,100.5743,17.075,0.06666667,0.04166667,1
3060,-0.01855469,0.9985352,0.001464844,-0.06103516,1.037598,-0.5493163999999999,90.62073,3.378296,100.7556,16.975,0.01666667,-0.025,1
3370,-0.020996090000000002,1.000977,-0.0034179690000000003,0.6103516,0.4882813,-0.6103516,90.63171,3.334351,100.9918,17.08333,0.008333334000000001,-0.008333334000000001,1
3670,-0.01953125,1.001953,-0.004394531,0.1831055,0.6713867,-0.3662109,90.68115,3.262939,101.1731,17.05,0.05,-0.04166667,1
3930,-0.01464844,1.002441,0.002441406,0.5493163999999999,-1.159668,-0.793457,90.78003,3.273926,100.8655,17.05,-0.025,0.025,1
4190,-0.01660156,0.9975586,0.001464844,4.577637,-1.586914,0.6713867,91.3623,3.147583,100.6183,17.19167,-0.6000000000000001,0.5166666999999999,1
4530,-0.005371094000000001,0.9995117,-0.02050781,-0.06103516,-0.9155272999999999,-0.7324219,92.01599,2.8125,100.1953,17.04167,-0.375,-0.06666667,1
4760,-0.009277344,0.9995117,-0.022460940000000002,-0.6713867,-1.403809,-1.403809,91.75781,2.971802,99.75037,14.88333,-37.11666,7.566667,1
5020,-0.01269531,1.000488,-0.01416016,-0.5493163999999999,-1.037598,-0.9765625,91.59851,3.054199,99.57458,17.03333,-0.24166669999999998,0.0,1
5260,-0.01318359,0.9995117,-0.01367188,0.1831055,-0.3051758,-0.9155272999999999,91.69189,3.098145,99.36584,15.075,-37.05,7.033333,1
5510,-0.01171875,1.000977,-0.01806641,-0.06103516,1.037598,-0.8544921999999999,91.72485,3.098145,99.41528,17.03333,-0.225,-0.04166667,1
5750,-0.01220703,0.9970703,-0.015136720000000001,-0.7324219,0.793457,-0.6713867,91.61499,3.12561,99.77783,14.59167,-37.08333,7.433333,1
5990,-0.017089840000000002,0.9980469,-0.009277344,-0.1831055,-1.525879,-0.8544921999999999,91.62598,3.14209,99.87671,17.075,-0.17500000000000002,-0.01666667,1
6270,-0.015136720000000001,1.000488,-0.01269531,-0.3051758,-0.42724609999999996,-1.037598,91.65894,3.197021,99.49219,14.83333,-37.05833,7.166667,1
6600,-0.01660156,0.9990234,-0.008789063,0.1831055,-1.342773,-0.9765625,91.69739,3.262939,99.19556,17.05,-0.15833329999999998,0.05833333,1
6880,-0.01757813,1.001465,-0.01171875,0.0,-1.098633,-0.8544921999999999,91.74133,3.290405,98.80554,15.18333,-37.025,6.9,1
7180,-0.01611328,1.0,-0.009277344,0.12207029999999999,-0.6103516,-0.7324219,91.71387,3.334351,98.5144,17.075,-0.15833329999999998,-0.008333334000000001,1
7480,-0.01660156,1.0,-0.011230470000000001,0.12207029999999999,0.793457,-0.6103516,91.78528,3.356323,98.55286,15.19167,-36.975,7.008333,1
7780,-0.01660156,0.9951171999999999,-0.01171875,-0.1831055,0.4882813,-0.6103516,91.77979,3.339844,98.84399,14.89167,-36.925,7.283333,1
8060,-0.01806641,1.003418,-0.01660156,0.793457,-3.662109,-0.06103516,91.97754,3.235474,99.34937,17.08333,-0.1833333,-0.01666667,1
8310,-0.01464844,1.003906,-0.01611328,0.6713867,-0.3662109,-0.8544921999999999,92.1698,3.197021,98.69568,17.11667,-0.2916667,0.05,1
8610,-0.01464844,1.0,-0.01660156,-0.24414059999999999,-0.6713867,-0.9155272999999999,92.14783,3.218994,98.44849,17.25833,-0.3916667,-0.3416667,1
8980,-0.022460940000000002,0.9868163999999999,0.03613281,-0.4882813,-1.7700200000000001,-0.42724609999999996,90.54932,3.317871,98.0365,15.23333,-37.575,6.175,1
9240,-0.01611328,1.006836,-0.002441406,2.01416,-0.3662109,-0.793457,90.65369,3.301392,97.68494,17.08333,-0.09166667,0.1166667,1
9490,-0.01611328,1.000977,-0.002929688,0.7324219,-1.403809,-0.5493163999999999,90.89539,3.339844,97.43774,15.19167,-37.48333,6.466667,1
9730,-0.01416016,1.0,0.0004882813,0.06103516,-1.586914,-0.6103516,90.95032,3.290405,97.28394,17.06667,0.01666667,-0.008333334000000001,1
9970,-0.015136720000000001,1.000977,-0.001464844,0.4882813,0.42724609999999996,-0.7324219,90.95581,3.235474,97.16858,15.11667,-37.35833,6.441667,1
10210,-0.01464844,0.9985352,-0.001464844,0.3051758,0.9765625,-0.9765625,91.05469,3.224487,97.36633,17.05833,0.0,0.1,1
10490,-0.01464844,0.9956054999999999,-0.002441406,0.5493163999999999,1.403809,-0.793457,91.21948,3.240967,97.61902,17.03333,-0.04166667,0.06666667,1
10710,-0.015625,1.001465,-0.005371094000000001,0.24414059999999999,0.8544921999999999,-0.9155272999999999,91.46667,3.268433,97.88818,14.84167,-37.1,7.033333,1
10990,-0.02050781,1.001953,-0.00390625,-0.24414059999999999,-1.708984,-0.8544921999999999,91.39526,3.35083,97.88818,14.84167,-37.14167,7.0,1
11280,-0.02001953,0.996582,-0.002441406,0.24414059999999999,-0.7324219,-0.7324219,91.46667,3.3728029999999998,97.59705,17.04167,-0.05833333,0.06666667,1
11530,-0.01611328,1.0,-0.004394531,0.7324219,-1.586914,-0.4882813,91.68091,3.323364,97.10815,17.09167,-0.1333333,0.05833333,1
11800,-0.015625,0.9995117,-0.006835938000000001,0.06103516,-0.8544921999999999,-0.793457,91.74133,3.262939,96.65222,15.18333,-37.23333,6.95,1
12100,-0.01464844,1.0,-0.006835938000000001,0.24414059999999999,-0.8544921999999999,-0.6103516,91.73584,3.257446,96.47644,17.075,-0.1083333,0.01666667,1
12350,-0.017089840000000002,0.9995117,-0.011230470000000001,0.24414059999999999,-1.098633,-0.793457,91.74133,3.218994,96.36108,16.78333,-0.01666667,0.5833332999999999,1
12620,-0.006835938000000001,1.003418,-0.04394531,6.774902,-5.981445,2.319336,93.49915,2.675171,95.7019,14.741670000000001,-36.73333,7.983333,1
12900,0.008789063,0.9985352,-0.05761719,2.319336,-3.234863,-1.89209,94.63074,2.252197,95.0647,14.775,-36.35833,8.258333,1
13200,-0.006347656,0.9956054999999999,-0.06152344,0.24414059999999999,-0.1831055,-1.342773,94.63623,2.653198,94.74609,15.25833,-36.06667,8.383333,1
13570,-0.001953125,0.9980469,-0.05761719,-0.6713867,-0.793457,-0.7324219,94.54285,2.713623,94.60876,17.03333,-0.9833333999999999,-0.09166667,1
13780,-0.002441406,0.9975586,-0.05175781,0.06103516,-1.220703,-0.3051758,94.40002,2.675171,94.422,17.05833,-0.9166667,-0.06666667,1
13990,-0.0009765625,0.9980469,-0.0546875,-0.3662109,-0.6713867,-0.9155272999999999,94.35059,2.686157,94.0979,17.025,-0.9416667,0.01666667,1
15200,-0.01367188,0.9990234,-0.05615234,0.6103516,-1.037598,-0.24414059999999999,94.40552,2.834473,94.58679,17.1,-0.9666665999999999,-0.008333334000000001,1
15390,-0.001953125,0.9960937999999999,-0.05371094,-0.06103516,-0.7324219,-0.5493163999999999,94.3396,2.785034,94.3396,17.00833,-0.8333332999999999,0.04166667,1
15610,-0.007324219000000001,0.9990234,-0.056640630000000004,0.1831055,-0.42724609999999996,-0.4882813,94.48792,2.719116,94.18579,15.2,-36.16667,8.366667,1
15860,-0.005859375,0.9990234,-0.05859375,0.42724609999999996,-1.159668,-0.7324219,94.57031,2.686157,94.04297,15.05833,-36.275,8.308333,1
16100,-0.0034179690000000003,0.9995117,-0.05712891,0.1831055,-0.9765625,-1.037598,94.59778,2.741089,93.78479,17.05,-0.9333332999999999,-0.008333334000000001,1
16370,-0.006835938000000001,1.000977,-0.052734380000000004,-0.6103516,-0.06103516,-1.281738,94.422,2.785034,93.62,15.29167,-36.2,8.075,1
16620,-0.0234375,0.9921875,-0.02392578,-4.333496,2.13623,-1.159668,93.39478,2.911377,94.05396,15.13333,-36.51667,7.75,1
16920,-0.0078125,1.005859,-0.02832031,6.408691,4.455566,1.281738,93.84521,2.6696779999999998,94.72961,17.15,-0.7666666999999999,0.5333333,1
17160,0.0009765625,0.9970703,-0.06542969,2.075195,3.356934,-0.3051758,94.85046,2.087402,95.91614,16.99167,-0.8416665999999999,0.08333334,1
17450,-0.0009765625,1.000488,-0.05908203,0.3662109,-2.380371,-1.708984,94.92188,2.158813,95.76233,13.84167,-36.15,9.458333,1
17740,0.00390625,0.9956054999999999,-0.05615234,0.1831055,-2.441406,-1.342773,94.79004,2.25769,95.45471,17.05,-1.05,0.1666667,1
17990,0.0,0.9946288999999999,-0.05810547,0.6103516,-2.807617,-0.6103516,94.99878,2.406006,94.86694,17.0,-1.075,0.125,1
18260,0.0,0.9995117,-0.06347656,1.281738,-1.953125,-0.42724609999999996,95.16907,2.373047,94.37805,17.075,-1.166667,0.125,1
18550,-0.006347656,0.9746094,0.01855469,-4.821777,6.713867,-1.098633,93.46619,2.757568,93.64197,16.86667,0.15833329999999998,0.2166667,1
18820,-0.002929688,0.9921875,-0.05957031,5.371094,0.8544921999999999,-1.403809,94.02649,2.966309,93.97156,17.15833,-1.1,0.47500000000000003,1
19020,-0.0034179690000000003,0.996582,-0.04541016,2.502441,1.8310549999999999,0.4882813,94.80103,2.6477049999999998,94.60876,17.10833,-1.133333,0.06666667,1
19230,0.0004882813,0.9990234,-0.05615234,-0.06103516,1.953125,0.3051758,94.64172,2.362061,95.08667,13.95,-36.25,9.441667,1
19470,0.0004882813,0.9956054999999999,-0.05175781,0.0,2.502441,1.037598,94.50439,2.290649,95.09766,17.16667,-1.133333,-0.35833329999999997,1
19740,-0.001953125,0.9848633,-0.02978516,1.159668,0.6713867,1.7700200000000001,94.16382,2.224731,95.02625,17.0,-0.6166667,0.5750000000000001,1
19960,0.0009765625,1.006348,-0.06787109,3.112793,-0.24414059999999999,-1.464844,95.7074,2.054443,94.13635,14.09167,-36.08333,9.783334,1
20210,0.00390625,1.002441,-0.06982422,-1.8310549999999999,0.12207029999999999,-2.01416,95.3833,2.356567,94.04297,17.075,-1.166667,-0.2833333,1
20450,0.0004882813,1.0,-0.06201172,-3.2958979999999998,-1.953125,-1.281738,94.72961,2.532349,93.97156,17.06667,-0.8583333999999999,-0.47500000000000003,1
20660,0.0,1.000488,-0.04003906,-1.586914,-2.807617,-1.342773,93.79028,2.6971439999999998,93.51563,14.741670000000001,-36.34167,8.391666,1
20920,-0.0078125,1.001465,-0.03710938,-0.8544921999999999,-0.12207029999999999,-1.281738,93.68591,2.790527,93.48816,17.03333,-0.5666667,-0.04166667,1
21190,-0.011230470000000001,0.9985352,-0.03417969,-0.12207029999999999,-2.624512,-0.5493163999999999,93.60901,2.911377,92.87842,14.93333,-36.68333,7.9,1
21460,0.0,1.0,-0.04003906,0.6103516,-1.586914,-0.6713867,93.74084,2.823486,92.26868,15.075,-36.56667,7.575,1
21750,-0.006347656,0.9951171999999999,-0.03857422,0.24414059999999999,-2.502441,-0.5493163999999999,93.74084,2.796021,91.96106,17.06667,-0.6416666999999999,-0.05833333,1
22020,-0.005371094000000001,0.9956054999999999,-0.03710938,2.319336,-1.6479489999999999,0.42724609999999996,93.89465,2.702637,91.22498,17.04167,-0.7083332999999999,0.36666669999999996,1
22280,-0.00390625,0.9990234,-0.06152344,2.502441,-2.197266,-0.1831055,94.48242,2.570801,90.93384,17.1,-0.9166667,0.1416667,1
22570,-0.008300781,0.9975586,-0.05810547,2.13623,-0.1831055,-0.8544921999999999,94.87793,2.614746,90.7196,17.1,-1.166667,0.03333333,1
22770,-0.005371094000000001,1.001465,-0.05908203,-0.6713867,-1.7700200000000001,-1.7700200000000001,94.75708,2.6696779999999998,90.53833,15.46667,-36.15833,7.883333,1
23020,-0.001953125,0.9960937999999999,-0.05029297,-2.197266,-3.540039,-1.89209,94.23523,2.938843,89.47266,17.00833,-0.7583333,-0.03333333,1
23260,-0.01074219,1.006836,-0.06005859,-1.953125,12.26807,-0.9765625,94.08691,3.081665,90.42847,16.93333,-0.875,0.008333334000000001,1
23470,-0.00390625,0.9951171999999999,-0.03222656,0.24414059999999999,-9.460449,-2.13623,94.10889,3.098145,90.30212,15.83333,-36.24166,7.583333,1
23720,-0.01806641,0.9975586,-0.03955078,-0.3051758,1.037598,-1.220703,94.04846,3.345337,89.89014,17.05833,-0.7416667,0.0,1
23990,-0.01953125,0.9995117,-0.05078125,-1.159668,0.8544921999999999,-0.3051758,93.88916,3.394775,89.81873,17.05833,-0.5750000000000001,-0.075,1
24210,-0.01855469,0.9951171999999999,-0.05517578,-1.342773,0.6713867,1.464844,93.87817,3.043213,89.52759,16.83333,-0.5083333,0.35833329999999997,1
24480,0.01416016,1.0,-0.0546875,3.051758,2.807617,-0.06103516,94.81201,2.340088,89.61548,15.31667,-36.575,7.9,1
24780,-0.002929688,1.004395,-0.06201172,-0.4882813,9.094238,-2.13623,95.02625,2.362061,90.87891,17.06667,-1.108333,-0.15,1
25030,-0.004394531,0.9995117,-0.048828130000000004,-0.7324219,4.211426,-1.7700200000000001,94.44946,2.543335,92.07092,17.08333,-0.8666667,0.05,1
25300,-0.002929688,1.000488,-0.04785156,-0.6713867,-0.42724609999999996,-1.159668,94.41101,2.686157,92.35657,14.55,-36.2,8.658334,1
25570,-0.005859375,1.0,-0.05126953,-0.6103516,-3.051758,-1.6479489999999999,94.23523,2.845459,92.03796,17.03333,-0.7583333,-0.05,1
25810,-0.009765625,1.009766,-0.07275391,-2.441406,-9.216309,-0.3051758,93.96057,2.966309,91.19751,15.16667,-36.56667,7.841667,1
26120,-0.02978516,0.9775391,0.02734375,-8.361816,4.943848,-2.685547,91.56006000000001,3.460693,90.73059,15.63333,-37.59167,5.975,1
26400,0.0078125,1.009277,-0.03125,6.225586,4.638672,0.7324219,91.61499,3.213501,91.40625,15.06667,-36.875,7.25,1
26700,-0.0004882813,1.005371,-0.04394531,2.441406,-0.3662109,0.06103516,93.08167,2.724609,92.03247,14.4,-36.46667,8.391666,1
27040,-0.004882813000000001,0.9995117,-0.041015630000000004,-1.220703,0.7324219,-0.7324219,92.96082,2.609253,92.07092,17.04167,-0.6333333,-0.2083333,1
27280,-0.002441406,0.9985352,-0.03466797,-1.403809,-0.6713867,-0.6713867,92.62573,2.570801,91.99402,17.09167,-0.49166669999999996,-0.1333333,1
27490,-0.002441406,1.000977,-0.03125,-1.708984,1.342773,-0.5493163999999999,92.36755,2.510376,92.26318,17.03333,-0.40833329999999995,-0.2333333,1
27700,-0.0034179690000000003,0.996582,-0.02294922,0.3662109,0.6103516,-0.06103516,92.27966,2.351074,92.8949,13.725,-36.98333,8.408334,1
27940,0.00390625,1.004883,-0.04003906,-2.990723,-0.7324219,-1.281738,92.30164,2.2796629999999998,93.01025,16.925,0.1666667,0.2,1
28220,-0.0004882813,0.9892578,-0.01171875,2.380371,-1.8310549999999999,-0.4882813,92.53235,2.25769,92.79053,17.2,-0.5833332999999999,0.4166667,1
28440,0.0,0.9980469,-0.026367190000000002,-1.098633,0.3662109,-0.3051758,92.96082,2.202759,92.49939,16.90833,-0.1833333,0.2,1
28710,0.009765625,1.005371,-0.04980469,-0.1831055,-2.13623,-0.9765625,93.50464,1.972046,92.37854,13.44167,-36.99166,8.741667,1
29010,0.0009765625,0.9921875,-0.011230470000000001,0.3662109,-0.06103516,-0.3662109,93.25195,1.950073,92.2467,17.11667,-0.6000000000000001,0.1083333,1
29260,0.0004882813,0.9921875,-0.015625,-0.3662109,-1.342773,-0.793457,93.24097,2.005005,91.92261,17.04167,-0.40833329999999995,0.25,1
29530,0.0009765625,0.9975586,-0.03417969,1.037598,-1.7700200000000001,-0.24414059999999999,93.54309,2.131348,91.18652,13.84167,-36.94167,8.408334,1
29800,0.006835938000000001,1.003906,-0.05517578,0.1831055,-2.13623,-0.793457,93.82874,2.114868,90.802,16.98333,-0.5833332999999999,0.0,1
30040,0.006835938000000001,0.9990234,-0.05175781,-0.3662109,-1.7700200000000001,-0.7324219,93.70239,2.208252,90.40649,14.34167,-36.70833,8.458333,1
31330,0.01416016,1.008789,-0.05419922,-1.708984,-0.3051758,-5.737305,93.82874,2.6477049999999998,87.65991,15.55,-36.76667,7.058333,1
31640,-0.009765625,0.9882812999999999,-0.002929688,-2.502441,-2.258301,-5.310059,93.14758,3.510132,87.61047,17.125,-0.2166667,-0.2166667,1
31910,-0.04394531,0.9970703,0.006347656,-1.037598,-10.19287,1.037598,92.21924,4.152832,86.40747,16.75,0.1916667,-0.4166667,1
32190,0.008789063,0.9848633,-0.020996090000000002,3.78418,-2.990723,1.953125,91.71936,3.191528,85.17151,17.19167,-0.08333334,0.6083333,1
32420,-0.004882813000000001,1.009277,-0.01660156,4.577637,7.446289,1.342773,92.99927,2.6202389999999998,87.17102,16.675,-0.35833329999999997,1.483333,1
32640,0.03515625,0.9951171999999999,-0.06298828000000001,0.9155272999999999,-0.8544921999999999,-0.9155272999999999,94.77905,2.158813,85.79773,15.28333,-36.55,7.45,1
32880,-0.009277344,0.9892578,-0.05078125,7.263184,2.563477,-1.403809,96.21277,1.8402100000000001,86.41296,17.20833,-1.441667,1.166667,1
33120,0.02050781,0.9951171999999999,-0.1191406,4.638672,13.42773,0.6713867,97.51465,1.779785,87.22046,17.025,-2.091667,-0.01666667,1
33330,0.03613281,0.9790038999999999,-0.1040039,1.8310549999999999,5.493164,5.615234,97.62451,-0.2362061,91.59302,11.4,-35.75834,11.91667,1
33580,0.08007813,0.9887695,-0.1044922,-2.075195,-0.6713867,0.4882813,97.62451,-0.9063721,91.35132,16.96667,-1.608333,-0.5416667,1
33860,0.05957031,0.9882812999999999,-0.08935547,-3.90625,-0.4882813,-1.6479489999999999,96.78406,-0.7525634999999999,91.2854,17.075,-1.391667,-0.2916667,1
34080,0.05517578,0.9975586,-0.07763672,0.9155272999999999,-8.728026999999999,-3.540039,96.14136,-0.1593018,90.58777,16.98333,-1.308333,-0.2166667,1
34350,0.02001953,0.9848633,-0.0703125,1.586914,-2.624512,-2.929688,95.93811,1.19751,89.52209,13.3,-36.36666,10.01667,1
34650,0.01660156,1.015137,-0.1015625,3.2958979999999998,-5.004883,-2.685547,97.12463,1.263428,89.05518,17.01667,-2.2,-0.1916667,1
34890,0.01660156,0.9897461,-0.06591797,-3.845215,-2.197266,-0.4882813,96.16333,1.312866,88.96729,17.0,-1.25,-0.55,1
35160,0.01660156,0.9985352,-0.05810547,-0.793457,-2.258301,-1.464844,95.31189,1.395264,88.51135,13.53333,-36.64167,9.125,1
35440,0.01611328,0.996582,-0.06005859,-1.159668,0.9155272999999999,-0.9155272999999999,95.21851,1.51062,88.15979,16.875,-0.7916667,-0.09166667,1
35680,0.01757813,0.9995117,-0.05566406,-1.098633,3.967285,-0.793457,95.11414,1.483154,88.35754,13.54167,-36.68333,8.7,1
35990,0.02392578,0.9926758,-0.04345703,-1.708984,2.01416,-2.13623,94.08142,1.395264,89.198,13.33333,-37.15,8.741667,1
36260,0.007324219000000001,0.9985352,-0.01806641,-2.197266,-0.5493163999999999,-1.953125,93.62549,1.6149900000000001,89.81323,17.05,-0.3416667,-0.05,1
36540,0.01025391,0.9951171999999999,-0.024902340000000002,2.685547,-0.5493163999999999,-1.953125,94.19128,1.878662,89.87915,16.96667,-0.6333333,0.35833329999999997,1
36750,0.01367188,1.004883,-0.052734380000000004,1.281738,-2.197266,-0.06103516,94.94385,1.796265,90.04944,13.3,-36.83333,9.383333,1
36990,0.01269531,0.9956054999999999,-0.04785156,-0.793457,-0.42724609999999996,-0.9765625,94.71863,1.768799,89.87915,16.88333,-0.7000000000000001,0.1916667,1
37260,0.006835938000000001,1.003418,-0.04931641,1.525879,-3.173828,-1.342773,94.91089,1.834717,89.66492,17.00833,-0.9833333999999999,0.05833333,1
37470,0.005371094000000001,0.9931641,-0.04541016,0.3051758,0.06103516,-1.037598,94.98779,1.889648,89.45618,17.01667,-0.8666667,0.01666667,1
37690,0.005371094000000001,0.9980469,-0.05078125,-0.24414059999999999,-0.6103516,-0.793457,94.94385,2.021484,89.08813,13.7,-36.45,9.183333,1
37940,0.006347656,1.0,-0.05175781,0.42724609999999996,-0.8544921999999999,-0.6713867,95.04272,2.005005,88.96179,17.16667,-0.9833333999999999,-0.09166667,1
38190,-0.011230470000000001,0.9819336,-0.01367188,-1.159668,2.197266,0.793457,94.18579,2.208252,88.70911,16.99167,-0.1833333,0.5333333,1
38480,0.01611328,0.9907227,-0.05175781,6.9580079999999995,-2.319336,1.708984,95.27893,1.8457029999999999,88.53882,17.09167,-1.133333,1.05,1
38710,0.020996090000000002,0.9956054999999999,-0.09130859,3.2958979999999998,0.6103516,0.6103516,97.12463,1.2854,88.59375,13.19167,-35.925,10.775,1
39010,0.02197266,0.9960937999999999,-0.08837891,-0.793457,0.0,-1.037598,97.22351,1.126099,88.6322,16.99167,-1.558333,-0.008333334000000001,1
39310,0.020996090000000002,0.9946288999999999,-0.08300781,-1.281738,-0.9765625,-0.6103516,96.95435,1.153564,88.41797,13.125,-36.0,10.66667,1
39620,0.022460940000000002,0.9970703,-0.07617188,-1.281738,-1.586914,-0.5493163999999999,96.56433,1.137085,88.07739,17.05,-1.283333,-0.1666667,1
39920,0.022460940000000002,0.9995117,-0.07373047,-0.9155272999999999,-2.746582,-0.3662109,96.1084,1.142578,87.56653,13.38333,-36.41667,9.766666,1
40230,0.01806641,0.9960937999999999,-0.06298828000000001,0.1831055,-4.394531,-1.098633,95.73486,1.230469,86.9458,16.925,-1.008333,-0.1,1
40560,0.026367190000000002,0.996582,-0.06103516,-0.9155272999999999,7.568359,-1.8310549999999999,95.72388,1.30188,86.75354,17.025,-1.183333,0.1416667,1
40870,0.01953125,0.9990234,-0.06494141,-0.6713867,4.516602,-1.281738,95.74036,1.19751,88.90137,16.94167,-1.008333,-0.05833333,1
41100,0.02197266,0.9960937999999999,-0.05566406,0.24414059999999999,-1.220703,-1.220703,95.81726,1.224976,88.72559,12.79167,-36.5,10.025,1
41350,0.01611328,0.9936522999999999,-0.05859375,0.42724609999999996,-0.5493163999999999,-0.5493163999999999,95.81177,1.312866,88.58276,17.00833,-1.0,0.1166667,1
41590,0.022460940000000002,0.9951171999999999,-0.06347656,0.6103516,-1.403809,-0.7324219,95.97107,1.252441,88.44543,17.00833,-1.083333,0.1083333,1
41800,0.01806641,0.9990234,-0.05859375,1.098633,-0.9765625,-0.7324219,96.1908,1.257935,88.4729,12.85833,-36.34167,10.15,1
42040,0.01806641,0.9985352,-0.06835938,0.3051758,0.1831055,-0.9765625,96.25671,1.296387,88.22571,17.00833,-1.241667,0.1166667,1
42320,0.02734375,0.9990234,-0.07373047,0.42724609999999996,-1.220703,-0.8544921999999999,96.33362,1.329346,88.11035,17.025,-1.233333,-0.09166667,1
42540,0.008300781,0.9975586,-0.0625,-0.3051758,-2.01416,-1.159668,96.08643000000001,1.554565,87.90161,13.31667,-36.23333,9.941667,1
42820,0.009765625,0.9882812999999999,-0.06103516,-0.24414059999999999,-0.12207029999999999,-1.220703,96.03149,1.6754149999999999,87.23694,13.7,-36.26667,9.833333,1
43120,0.006835938000000001,0.9985352,-0.06591797,-0.8544921999999999,0.4882813,-2.868652,96.21826,1.8951419999999999,86.97876,17.05833,-1.166667,-0.04166667,1
43360,0.005859375,0.9931641,-0.060546880000000004,-1.7700200000000001,-0.793457,-1.281738,95.67444,2.25769,86.67664,17.03333,-0.8833333,-0.2833333,1
43630,0.002441406,0.9990234,-0.05029297,-2.624512,-1.89209,-1.464844,94.94934,2.444458,86.11084,14.425,-36.475,8.658334,1
43900,-0.02685547,1.01416,-0.026367190000000002,-2.563477,0.6713867,-0.793457,94.60876,2.438965,86.09985,16.99167,-0.5416667,-0.125,1
44180,0.001953125,0.9912109,-0.03515625,1.403809,-2.13623,0.3051758,94.51538,2.373047,85.63843,17.00833,-0.5833332999999999,0.375,1
44460,0.020996090000000002,1.013184,-0.0625,-2.258301,-2.258301,-1.708984,94.85046,2.252197,85.03418,17.18333,-0.65,-0.3416667,1
44790,0.017089840000000002,1.006348,-0.02294922,-4.699707,-4.211426,-2.502441,93.90564,2.356567,84.03992,17.34167,-0.7000000000000001,-1.641667,1
45070,-0.02587891,0.9877929999999999,0.060546880000000004,0.1831055,6.469727,0.0,91.38428,2.823486,85.73181,16.81667,0.35833329999999997,0.625,1
45430,0.01611328,0.9936522999999999,-0.02929688,-1.953125,8.056641,0.7324219,91.70288,2.427979,86.9458,16.93333,0.4666667,0.8416665999999999,1
45640,0.02734375,0.9931641,-0.02783203,2.380371,-1.7700200000000001,-1.525879,92.40601,2.164307,86.31409,13.89167,-37.63334,7.55,1
45910,0.01269531,1.005371,-0.02685547,0.6713867,-4.089355,-2.319336,93.12012,2.06543,86.29761,16.91667,-0.5750000000000001,0.35833329999999997,1
46150,0.01660156,1.006348,-0.048828130000000004,0.3662109,-6.225586,-1.586914,93.87268,1.955566,86.16028,13.66667,-37.34167,8.383333,1
46400,0.005859375,1.005859,-0.024902340000000002,-0.42724609999999996,-1.586914,-0.9765625,93.87817,1.867676,85.95154,17.03333,-0.75,-0.17500000000000002,1
46640,0.008300781,1.002441,-0.03613281,-0.5493163999999999,-3.967285,-1.464844,93.66394,1.862183,85.7428,13.76667,-37.23333,8.091666,1
47870,0.01269531,0.9985352,-0.01953125,1.159668,-1.220703,-0.9155272999999999,93.52661,1.757813,85.92957,13.50833,-37.525,8.216666,1
48110,0.00390625,0.9980469,-0.02685547,-0.1831055,-1.586914,-1.89209,93.52661,1.922607,85.68787,17.00833,-0.2916667,0.04166667,1
48380,0.0078125,1.0,-0.02050781,0.793457,-1.159668,-1.159668,93.57056,2.070923,85.46814,17.04167,-0.44166669999999997,0.1333333,1
48600,0.002441406,1.007324,-0.02441406,0.0,0.793457,-1.220703,93.72437,2.164307,85.19348,16.93333,-0.4583333,-0.075,1
48870,0.006835938000000001,0.9916992,-0.02148438,-1.342773,1.953125,-0.6103516,93.34534,2.164307,85.96802,16.91667,-0.075,0.5333333,1
49170,0.006835938000000001,1.004395,-0.04980469,3.051758,-0.12207029999999999,0.4882813,94.5813,1.884155,86.52832,13.13333,-37.11666,8.916667,1
49480,0.01611328,0.9980469,-0.03173828,-1.281738,-0.7324219,-0.7324219,94.30664,1.625977,86.33057,17.04167,-0.5416667,-0.1083333,1
49810,0.01074219,0.9960937999999999,-0.028808590000000002,-0.3662109,-1.586914,-0.9765625,94.08691,1.680908,85.66589,17.04167,-0.5416667,0.05,1
50090,0.01806641,0.9946288999999999,-0.028808590000000002,1.708984,0.42724609999999996,-0.42724609999999996,94.53735,1.560059,85.55054,13.21667,-36.98333,9.033334,1
50360,0.01611328,1.000977,-0.04394531,0.12207029999999999,0.4882813,-1.525879,94.64722,1.576538,85.68237,17.24167,-0.6583333,-0.4666667,1
50650,0.002441406,0.9873046999999999,0.006347656,-4.943848,3.4790039999999998,-2.807617,92.98279,2.389526,86.00098,16.96667,0.2333333,-0.15,1
50840,-0.002441406,0.9995117,-0.007324219000000001,1.403809,0.1831055,-0.3051758,92.62024,2.543335,86.24268000000001,17.09167,-0.2,0.225,1
51030,-0.001464844,1.009277,-0.017089840000000002,2.075195,-3.662109,-0.1831055,93.10913,2.373047,86.08887,17.10833,-0.17500000000000002,0.1833333,1
51240,0.006835938000000001,1.001953,-0.015625,0.9155272999999999,-2.746582,0.12207029999999999,93.23547,2.1698,85.78674,17.075,-0.25,0.0,1
51450,0.008300781,1.000488,-0.008300781,0.1831055,-0.4882813,0.3662109,93.2135,1.955566,85.75928,17.075,-0.24166669999999998,-0.008333334000000001,1
51670,0.004882813000000001,1.000977,-0.01269531,0.0,-4.089355,-1.342773,93.16406,1.829224,85.42419,13.25,-37.51667,7.958333,1
51920,0.00390625,0.9912109,-0.0004882813,2.929688,-0.24414059999999999,0.3662109,93.25745,1.889648,85.01221,17.09167,-0.35000000000000003,0.3416667,1
52190,0.01269531,1.003418,-0.03955078,0.9155272999999999,-0.4882813,-0.3662109,93.80127,1.906128,84.51233,17.025,-0.1833333,0.35000000000000003,1
52400,0.007324219000000001,0.9970703,-0.02734375,1.525879,-1.89209,-0.5493163999999999,94.20227,1.73584,84.49585,17.21667,-0.8833333,-0.1833333,1
52630,0.004882813000000001,0.9985352,-0.01171875,1.159668,-0.6713867,-0.793457,94.10339,1.691895,84.31458,17.08333,-0.8583333999999999,-0.15,1
52890,0.005371094000000001,1.001953,-0.02050781,0.12207029999999999,-1.403809,-1.403809,94.12537,1.713867,84.21021,13.31667,-37.25834,8.3,1
53160,0.009277344,1.001953,-0.01220703,0.6103516,3.967285,-0.3051758,93.99902,1.7028809999999999,84.47388,17.1,-0.6416666999999999,-0.075,1
53400,0.01171875,0.9975586,-0.02587891,-0.1831055,-2.502441,-1.953125,94.07593,1.73584,84.41895,13.48333,-37.23333,8.541667,1
53710,0.009277344,0.9975586,-0.03173828,0.8544921999999999,0.1831055,-0.4882813,94.29565,1.8182369999999999,83.95752,17.075,-0.5166666999999999,0.125,1
54050,0.01416016,0.9995117,-0.04150391,2.075195,-0.3662109,-0.6713867,94.63074,1.785278,83.67737,13.54167,-36.875,8.541667,1
54360,0.004394531,1.004395,-0.041015630000000004,-0.4882813,-1.464844,-1.037598,94.55933,1.939087,83.07861,17.0,-0.6333333,-0.05833333,1
54690,0.015136720000000001,1.002441,-0.041015630000000004,0.6713867,-0.42724609999999996,-1.953125,94.69666,1.884155,82.80945,13.875,-37.00834,8.375,1
54960,0.006347656,1.000488,-0.03808594,-0.12207029999999999,-1.89209,-0.9155272999999999,94.60327,1.972046,82.63916,17.025,-0.5583332999999999,-0.025,1
55200,-0.004394531,1.009277,-0.02783203,0.6713867,1.098633,-0.9155272999999999,94.68018000000001,1.950073,82.46887,17.41667,-0.5083333,0.15,1
55420,0.009765625,1.006348,-0.04394531,-1.342773,-1.8310549999999999,-0.6103516,94.3396,2.158813,82.11182,14.25,-37.05833,7.875,1
55650,0.01367188,0.9892578,-0.002929688,2.807617,-2.380371,-0.8544921999999999,94.30664,2.098389,81.87012,16.925,-0.47500000000000003,0.6333333,1
55900,0.007324219000000001,0.9960937999999999,-0.06542969,-0.06103516,-2.13623,0.793457,95.18555,2.230225,81.35376,14.45833,-36.64167,8.4,1
56150,0.01806641,0.9931641,-0.05175781,3.417969,-1.220703,0.06103516,95.60303,1.955566,81.11206,17.10833,-1.183333,0.1166667,1
56430,-0.004394531,0.9985352,-0.04199219,0.3051758,2.13623,-0.9765625,95.7019,2.06543,81.31531,14.36667,-36.4,8.641666,1
56710,0.0004882813,0.9931641,-0.03515625,-1.037598,4.699707,0.12207029999999999,94.93286,2.252197,82.27112,14.10833,-36.74166,8.841666,1
57000,0.006835938000000001,0.996582,-0.05322266,-2.624512,4.02832,-0.9155272999999999,94.62524,2.213745,82.59521,17.025,-0.3916667,0.1,1
57250,0.008789063,0.9946288999999999,-0.04199219,-0.3662109,1.037598,0.06103516,94.53735,2.059937,83.06213,13.71667,-36.99166,8.808333,1
57520,0.01660156,0.9995117,-0.0625,-1.159668,-0.12207029999999999,-1.403809,94.95483,1.966553,82.56226,13.8,-36.75,9.125,1
57820,0.006347656,1.003418,-0.04150391,2.380371,-4.333496,-0.7324219,95.24597,1.801758,82.66113,17.075,-1.383333,-0.31666669999999997,1
58070,0.005859375,0.9951171999999999,-0.03417969,3.417969,-0.6713867,-0.1831055,95.37231,1.768799,82.43591,13.56667,-36.61666,9.2,1
58340,0.0009765625,0.9960937999999999,-0.02001953,0.1831055,-0.5493163999999999,-0.12207029999999999,94.96582,1.801758,82.17224,13.65833,-36.85,8.633333,1
58650,-0.002929688,1.001953,0.0004882813,1.7700200000000001,1.7700200000000001,1.342773,94.44946,1.928101,81.83716,13.95833,-37.09167,8.25,1
58950,0.011230470000000001,1.001465,-0.022460940000000002,0.0,-2.929688,-0.9155272999999999,94.60876,1.741333,81.55701,16.91667,-0.75,0.17500000000000002,1
59330,0.046875,1.008789,-0.08105469,2.502441,-0.4882813,-0.793457,96.10291,1.038208,81.39221,13.23333,-36.975,9.141666,1
59560,0.02587891,0.9985352,-0.05712891,-1.6479489999999999,-0.8544921999999999,-2.075195,95.88867,1.087646,81.41418,17.00833,-0.9583332999999999,-0.225,1
59830,0.01757813,1.006836,-0.05126953,-3.723145,-0.5493163999999999,-2.258301,95.27893,1.30188,81.34277,17.21667,-1.266667,-1.4,1
60040,0.01220703,0.9882812999999999,-0.005859375,-6.652832,3.90625,-2.868652,93.59802,1.928101,81.43616,16.81667,0.3083333,-0.24166669999999998,1
60250,0.004394531,1.003906,-0.03125,2.868652,0.7324219,1.403809,93.73535,1.96106,81.99646,13.46667,-37.65833,7.966667,1
60490,0.07177734,0.9868163999999999,-0.0546875,-0.12207029999999999,-1.708984,0.793457,93.8562,1.713867,81.10107,18.44167,-1.158333,-1.9000000000000001,1
60740,-0.01220703,1.086914,-0.01269531,-65.61279,8.972168,-11.53564,83.82019,3.966064,79.81018,15.93333,-40.91667,-0.7666666999999999,1
60991,-0.05908203,0.8481445,0.5053711,-63.65967,10.00977,-11.96289,68.85132,7.23999,80.06836,16.025,8.25,-4.391667,1
61260,-0.11279299999999999,0.8447266,0.4243164,15.13672,6.408691,10.74219,64.27551,7.855225,84.55078,17.14167,-43.33333,-15.025,1
61570,0.02978516,0.8071288999999999,0.39599609999999996,33.02002,56.57959,33.56934,73.02612,2.076416,89.21448,15.21667,6.033333,2.35,1
61870,0.06494141,0.9995117,0.2519531,13.97705,74.89014,3.723145,77.67334,0.5053711,106.8915,1.408333,-45.90833,3.358333,1
62170,-0.15136719999999998,1.130371,0.2084961,8.972168,32.4707,-2.258301,83.49609,1.142578,128.4082,18.025,1.5,3.908333,1
62500,-0.08984375,0.9282227,0.121582,-12.20703,6.896973,1.6479489999999999,85.95154,1.351318,132.7588,17.65833,0.6083333,-0.4583333,1
62780,-0.1918945,0.9145508,-0.02148438,-22.70508,-1.037598,3.78418,84.6936,2.411499,139.4165,-11.741670000000001,-44.33333,8.966666,1
63050,0.04736328,1.089355,0.19775389999999998,-1.6479489999999999,24.23096,-1.6479489999999999,83.07861,0.736084,134.4672,16.275,4.025,4.483333,1
63300,-0.04589844,0.9462891,0.18603519999999998,-18.61572,39.85596,22.64404,87.82471,-0.8129883,144.4153,15.06667,1.683333,-1.75,1
64580,0.09619141,1.041016,0.06542969,-0.9765625,0.3662109,13.24463,90.47791,-0.7965088,156.8463,-22.96667,-40.96667,10.625,1
64930,0.1079102,1.038574,0.0859375,1.7700200000000001,44.06738,-6.347656,86.19873,-3.070679,161.0706,18.35833,1.7,1.791667,1
65130,0.08154297,0.9667969,0.3164063,20.99609,-30.2124,26.97754,87.84668,-5.141602,165.9595,16.825,3.083333,0.025,1
65340,-0.10058589999999999,0.8798828,0.12402339999999999,-0.1831055,-88.13477,-16.60156,89.06067,-5.075684,158.7305,17.61667,1.575,-1.2,1
65550,-0.015625,0.9868163999999999,0.01367188,-2.502441,-109.4971,-5.004883,88.72009,-3.746338,139.2847,18.04167,-0.09166667,-0.85,1
65760,-0.04150391,1.04834,0.01269531,21.3623,39.18457,-4.455566,91.77429,-1.274414,128.4686,-9.958333,-40.50834,15.525,1
66010,0.028808590000000002,0.9736328,-0.06005859,-10.31494,27.70996,3.90625,91.23596,-1.312866,133.9893,15.94167,-2.633333,-1.75,1
66290,0.07568359,0.949707,-0.1850586,-18.18848,54.99268,2.380371,88.86841,-2.252197,140.6689,18.21667,-2.358333,0.30000000000000004,1
66500,-0.04296875,1.239258,-0.1044922,8.117676,55.41992,9.216309,88.73657,-4.449463,152.7045,15.95,3.733333,1.758333,1
66710,-0.1103516,0.9306641,-0.01855469,-3.051758,14.77051,-16.17432,88.8739,-4.328613,160.4663,-26.975,-42.13334,8.841666,1
66960,-0.01855469,0.8920897999999999,-0.05371094,-32.4707,-35.27832,-7.080078,85.62195,-2.208252,158.4119,18.5,-0.2166667,1.1,1
67270,-0.06933594,1.121094,0.137207,-0.8544921999999999,7.385254,-6.896973,89.82422,1.016235,157.6373,16.23333,1.8666669999999999,-0.3916667,1
67500,0.10498049999999999,0.9921875,-0.03369141,-8.361816,56.70166,-9.70459,84.73206,-1.582031,161.1145,-26.325,-46.875,2.258333,1
67810,-0.09082031,0.9951171999999999,0.23779299999999998,16.54053,-4.760742,2.807617,85.86365,-4.570313,170.744,15.76667,2.191667,-0.3416667,1
68140,-0.06445313,0.9355469,-0.09716797,-23.62061,-30.27344,0.06103516,84.73206,-1.18103,165.0531,17.275,0.8333332999999999,-1.65,1
68420,-0.1772461,0.9516602,0.22949219999999998,30.15137,20.44678,-17.02881,88.22571,1.109619,160.2301,-22.925,-47.00834,7.316667,1
68690,0.006835938000000001,0.8535155999999999,0.10498049999999999,-32.4707,-15.625,15.68604,88.09387,0.1812744,158.0328,15.71667,-0.9583332999999999,-2.483333,1
68980,0.007324219000000001,1.126953,0.04833984,17.8833,20.50781,13.12256,84.00696,-2.285156,163.7018,16.40833,4.158333,1.408333,1
69170,-0.046875,1.029297,0.1567383,7.385254,2.380371,-2.319336,86.07239,-6.295166,167.0416,14.98333,1.5833329999999999,-0.7000000000000001,1
69390,-0.09570313,0.8916016,-0.01464844,-25.5127,-26.42822,-1.6479489999999999,82.33154,-2.109375,163.4766,-26.75833,-48.46667,3.625,1
69660,0.05761719,0.934082,0.3911133,86.91406,43.70117,-29.41895,85.3418,-0.302124,159.9664,20.35833,2.683333,1.416667,1
69900,0.0234375,0.9428711,0.105957,-21.30127,-10.37598,16.6626,87.70935,0.01098633,159.6039,14.925,0.45,-3.233333,1
70120,-0.09570313,1.024902,-0.1015625,2.13623,22.64404,4.150391,81.29883,-1.686401,166.9427,-28.525,-47.64167,4.725,1
70360,-0.01367188,1.051758,0.206543,16.60156,-13.67188,2.990723,83.79272,-4.828491,169.3103,14.59167,2.575,-1.125,1
70610,0.011230470000000001,0.8842772999999999,0.02539063,-2.563477,-24.16992,-20.26367,83.28735,-1.790771,165.531,15.55833,-0.9583332999999999,-3.6,1
70820,0.05419922,0.9960937999999999,0.34033199999999997,74.52393000000001,5.371094,-29.72412,84.73206,-1.032715,157.7637,-22.5,-45.58333,11.25,1
71090,0.09472656,0.8833008,0.1201172,-18.43262,-6.286621,11.23047,85.979,-1.378784,157.0276,14.93333,0.06666667,-2.075,1
71350,-0.030273440000000002,1.033691,-0.07617188,7.263184,22.2168,6.469727,81.77673,-2.757568,165.2069,-28.975,-44.53333,6.8,1
71620,-0.1020508,0.8823242,0.07958984,0.6713867,-1.098633,-16.96777,84.35303,-4.520874,166.355,-29.325,-43.10833,8.016666,1
71920,-0.1191406,0.8847655999999999,0.01464844,-21.05713,-35.15625,-2.929688,81.3208,-2.9882809999999997,163.1635,17.95,-0.25,0.625,1
72150,-0.1132813,1.171387,0.1367188,-11.16943,8.239746,1.525879,85.177,-0.45593259999999997,159.4446,-23.76667,-44.09167,10.14167,1
72440,0.17822269999999998,0.8613280999999999,-0.01855469,7.324219,39.36768,-1.8310549999999999,79.42566,-2.460938,163.1085,-27.075,-45.68333,4.833333,1
72750,0.05761719,1.060059,0.24462889999999998,18.37158,-8.605957,-0.3662109,80.44189,-4.674683,170.8704,-32.20833,-43.39167,4.408333,1
73050,-0.09765625,0.8769530999999999,-0.011230470000000001,-18.73779,-50.96436,-0.3051758,78.99719,-1.587524,165.0861,18.14167,0.008333334000000001,0.4,1
73420,-0.12451169999999999,1.204102,0.1835938,8.300781,10.55908,7.8125,84.18274,-0.2636719,159.6368,14.85833,2.091667,-1.6,1
73620,0.1337891,0.7846679999999999,-0.006347656,2.01416,42.66357,-5.432129,79.97498,-3.3728029999999998,165.542,-30.34167,-45.025,4.383333,1
73900,-0.4838867,1.1323239999999999,0.33300779999999996,-15.68604,32.53174,28.50342,78.83789,-2.9827879999999998,172.9852,18.04167,4.083333,0.9083334,1
74140,-0.06933594,0.9370117,0.10693359999999999,-0.7324219,-18.31055,-20.1416,81.6394,-4.663696,168.7555,15.55,0.8250000000000001,-1.475,1
74350,-0.03076172,1.026367,0.09277344,-4.211426,-40.52734,-10.55908,75.59692,-2.581787,161.2244,-27.325,-47.30833,3.675,1
74590,-0.246582,1.140137,0.2197266,13.42773,-5.493164,0.9765625,81.51306,-0.1702881,159.928,15.45833,2.875,0.4,1
74840,0.08740234,0.8710937999999999,0.04443359,-18.98193,6.103516,14.28223,81.42517,-3.092651,157.2144,14.35,-0.275,-2.641667,1
75060,-0.23681639999999998,1.296387,0.3676758,-6.896973,39.73389,24.53613,77.44812,-2.625732,167.8107,19.25,4.875,3.475,1
75360,-0.08935547,0.8930663999999999,0.11669919999999999,-13.12256,-28.25928,-23.37646,80.44739,-3.164063,167.0251,-30.08333,-44.9,5.366667,1
75670,0.1030273,1.236328,0.24414059999999999,20.44678,-17.7002,-10.80322,77.03064,-3.3673100000000002,156.5771,18.53333,4.366667,3.066667,1
75970,0.048828130000000004,0.8950195,0.08837891,-24.04785,12.93945,15.74707,81.06262,-3.186035,157.9175,-26.4,-44.75,7.083333,1
76280,0.07226563,1.245117,0.22998049999999998,-1.220703,36.92627,7.080078,76.4209,-2.362061,165.0751,-29.35833,-45.33333,2.008333,1
76540,0.004882813000000001,1.024414,0.1235352,4.211426,15.50293,-9.887695,79.29382,-5.449219,167.3163,14.88333,2.675,0.1083333,1
76790,-0.09765625,0.918457,0.04296875,-15.74707,-40.58838,1.403809,76.62415,-3.02124,164.3719,-26.65833,-45.45833,2.558333,1
77090,-0.1875,1.109375,0.18164059999999999,8.483887,-16.23535,2.868652,82.40295,-0.8459473,161.0321,16.3,1.633333,-1.541667,1
77400,0.17382809999999999,0.8442383,-0.028808590000000002,-12.08496,35.40039,-5.004883,78.09082,-3.718872,161.2573,17.24167,-1.025,-1.191667,1
77700,-0.01660156,1.038086,0.28662109999999996,-7.8125,15.13672,7.019043,77.92603,-5.196533,168.2831,16.45,1.783333,1.8666669999999999,1
78070,-0.04736328,1.049316,0.1103516,-5.554199,-30.76172,-6.896973,73.97095,-3.493652,162.1472,-24.5,-46.75,1.75,1
78330,-0.2387695,1.181641,0.21386719999999998,22.52197,8.117676,-17.57813,81.16699,0.1153564,161.8121,14.63333,2.341667,0.6583333,1
78580,0.121582,0.7626953,0.02685547,-13.06152,37.96387,-2.01416,77.56348,-2.999268,164.2126,-25.9,-46.175,2.8083329999999997,1
78820,-0.2910156,0.9433594,0.4399414,5.493164,24.10889,34.97314,76.32202,-3.098145,171.6779,18.31667,4.433333,0.2666667,1
79060,-0.11083979999999999,0.8867187999999999,0.1533203,7.141113,-8.911133,-22.76611,78.68958,-4.042969,169.184,15.40833,0.425,-1.316667,1
79280,0.046875,1.046875,0.03173828,10.13184,-46.93604,-8.911133,75.03662,-2.526855,160.2081,-23.325,-47.66667,2.85,1
79560,-0.1884766,1.222168,0.18164059999999999,-2.502441,-6.04248,13.12256,81.86462,-0.13732909999999998,160.3784,15.55833,2.433333,-2.5,1
79800,0.1020508,0.9882812999999999,-0.06298828000000001,3.845215,33.02002,-9.033203,77.26685,-2.37854,162.7405,-25.75833,-47.35833,2.766667,1
81050,0.006347656,1.060547,0.1445313,-21.97266,33.75244,-2.01416,79.29932,-3.345337,167.0746,19.59167,3.266667,1.15,1
81300,-0.05908203,0.8959961,0.17382809999999999,-1.403809,-4.638672,-13.24463,80.50232,-4.312134,170.2826,15.81667,2.216667,-0.875,1
81600,-0.05859375,0.9389647999999999,0.05371094,-18.12744,-29.66309,-0.9765625,77.3053,-2.334595,165.0806,-25.76667,-47.725,3.85,1
81900,-0.05224609,1.063965,0.1401367,-7.568359,-9.155273,-8.483887,82.26013,0.0604248,162.1747,-22.90833,-46.69167,8.166667,1
82180,0.04296875,0.8608397999999999,-0.01904297,-27.83203,-13.24463,2.380371,78.57422,-1.444702,159.8071,14.93333,0.525,0.2,1
82420,-0.1303711,0.9785155999999999,0.2773438,8.300781,-42.72461,22.27783,76.43738,-3.279419,165.3772,-26.54167,-46.74166,3.616667,1
82730,-0.01269531,0.9238280999999999,0.02832031,-5.065918,-15.44189,-16.11328,77.76123,-1.477661,159.5325,14.4,0.4666667,-2.383333,1
83030,-0.015625,0.9760742,0.5571288999999999,52.6123,21.66748,-10.37598,77.74475,-1.752319,155.9839,-20.10833,-46.79167,6.541667,1
83370,-0.020996090000000002,0.8964844,0.03125,-14.03809,17.7002,13.12256,77.59094,-3.032227,159.9554,13.91667,0.75,0.40833329999999995,1
83610,-0.1953125,0.9072266,0.2573242,26.42822,-22.15576,30.51758,75.76721,-3.90564,169.2114,-28.925,-45.23333,2.083333,1
83850,-0.09765625,0.8735352,0.1577148,5.371094,7.93457,-7.751465,78.78296,-3.735352,170.0574,15.18333,0.5666667,-0.7416667,1
84090,0.02587891,1.061035,0.11621089999999999,0.6713867,-23.55957,-5.187988,75.27283,-1.6479489999999999,167.0581,-26.24167,-46.375,1.283333,1
84330,-0.1015625,1.174316,0.1713867,-0.793457,5.67627,-3.051758,82.04041,1.071167,168.4973,14.875,1.975,-2.633333,1
84600,0.03564453,0.8784179999999999,0.01464844,-20.75195,14.34326,12.146,78.56323,-1.235962,169.1949,14.975,-0.05,0.6000000000000001,1
84820,-0.06298828000000001,1.060059,-0.01660156,6.408691,16.47949,-1.281738,75.62439,-0.8129883,173.4961,15.98333,4.433333,2.641667,1
85040,-0.08642578000000001,0.8979492,0.1157227,-1.708984,-23.13232,-22.88818,79.70032,-3.317871,171.4966,-28.4,-44.65,2.566667,1
85280,-0.04833984,0.9223633,-0.0703125,-29.29688,-32.22656,4.516602,76.87134,-1.378784,165.9595,17.45833,1.741667,-0.25,1
85520,-0.1875,1.189453,0.2661133,11.96289,10.00977,-6.164551,81.33179,-0.1263428,160.7794,-21.79167,-45.2,6.475,1
85770,0.01367188,0.8369141,0.07226563,-22.33887,22.94922,18.31055,80.66162,-3.202515,161.6034,14.56667,-1.516667,-1.416667,1
86040,-0.3925781,1.36084,0.4306641,-26.9165,46.20361,19.40918,75.94849,-2.032471,172.2052,-29.36667,-45.33333,-0.44166669999999997,1
86351,-0.05175781,0.8837891,0.1030273,-6.469727,-4.089355,-18.73779,78.47534,-2.433472,172.1613,15.66667,-0.8083332999999999,-3.158333,1
86650,-0.009765625,1.11377,0.44384769999999996,36.56006,1.586914,-12.57324,76.57471,-1.538086,165.4926,-24.63333,-46.06667,3.683333,1
86950,0.04003906,0.8237304999999999,0.07714844,-29.35791,11.71875,14.70947,81.24939,-1.697388,166.2286,14.80833,-0.8416665999999999,-1.65,1
87260,-0.04541016,1.193848,0.3603516,11.41357,32.40967,20.1416,77.56348,-2.120361,173.2379,-29.99167,-45.19167,0.5083333,1
87560,-0.08691406,0.8876953,0.1157227,-18.85986,-17.08984,-23.86475,80.02441,-2.675171,168.5742,-26.15,-45.74166,3.35,1
87880,0.0034179690000000003,1.081543,0.6479492,40.2832,2.746582,-15.50293,76.37695,-2.230225,160.6586,17.5,3.908333,3.108333,1
88100,-0.07714844,0.9858397999999999,0.1601563,0.3662109,-8.544922,15.31982,82.51282,0.08789063,162.0593,14.08333,0.8250000000000001,-3.866667,1
88330,-0.02001953,1.259277,0.07373047,-16.35742,21.72852,-0.9155272999999999,78.92578,-2.785034,165.4376,-25.56667,-45.35,4.483333,1
88560,0.041015630000000004,0.9765625,0.3901367,20.62988,-34.66797,20.93506,79.86511,-5.910645,168.4314,17.26667,0.8416665999999999,0.7416667,1
88840,-0.04833984,0.8549804999999999,0.1303711,-6.774902,-8.178711,-28.19824,80.41443,-3.240967,165.4486,17.05833,-2.541667,-1.9916669999999999,1
89060,-0.0859375,0.9448242,0.1323242,-29.11377,-31.79932,-5.493164,76.05286,-2.625732,163.0371,20.55833,3.525,2.25,1
89270,-0.05029297,0.9155272999999999,0.17382809999999999,-6.835938,-23.68164,8.605957,81.78772,0.8843994,159.7577,-19.43333,-45.1,7.283333,1
89520,0.1098633,0.8554687999999999,-0.08447266,-20.81299,6.896973,0.06103516,78.87634,-1.642456,158.9777,18.60833,3.708333,-3.791667,1
89760,0.14306639999999998,1.136719,0.27783199999999997,22.46094,-26.7334,20.56885,78.95325,-5.158081,163.3063,14.725,3.191667,1.633333,1
90060,-0.1132813,0.8989258,-0.05371094,-38.39111,-18.37158,5.004883,78.16772,-2.213745,159.6423,-20.98333,-45.94167,3.1,1
90370,-0.2236328,1.25,0.2504883,11.04736,19.40918,-19.34814,82.25464,1.257935,156.6705,-16.98333,-44.64167,7.466667,1
90640,0.08886719,0.8320312999999999,0.03564453,-21.72852,8.850098,21.30127,80.66711,-0.8184813999999999,155.1599,14.48333,-1.05,-0.8333332999999999,1
90880,-0.1967773,1.267578,0.47460939999999996,-13.00049,36.37695,29.23584,77.71179,-2.559814,163.2239,-24.00833,-45.075,2.925,1
91190,-0.04394531,0.8676758,0.12744139999999998,-10.49805,-26.55029,-27.40479,79.82666,-2.27417,159.4391,15.35,-0.775,-3.225,1
91500,0.046875,1.165039,0.4140625,30.88379,-25.14648,-14.52637,77.82715,-1.8731689999999999,148.5022,18.025,5.6,1.75,1
91800,0.056640630000000004,0.8876953,0.1328125,-31.00586,24.35303,19.22607,80.77148,-1.917114,146.7828,14.25833,-0.17500000000000002,-1.416667,1
92130,-0.05078125,1.345703,0.41113279999999996,-2.075195,43.82324,16.6626,77.15698,-2.93335,153.7482,15.725,6.05,3.875,1
92440,-0.05126953,0.855957,0.13134769999999998,-6.164551,-20.08057,-26.36719,80.3595,-3.317871,150.5072,16.725,-0.7083332999999999,-2.2,1
92680,-0.10693359999999999,1.0854489999999999,-0.03271484,21.1792,-48.27881,-11.35254,77.67334,-2.290649,141.1469,-11.21667,-46.25834,6.008333,1
92920,-0.1489258,1.264648,0.1616211,3.78418,-15.74707,9.82666,85.11658,0.4504395,140.3778,15.85,1.566667,-2.616667,1
93160,0.08398438,0.8999022999999999,-0.05761719,-19.77539,7.568359,12.02393,81.54602,-2.785034,139.5374,15.28333,-0.2333333,-0.4333333,1
93370,-0.4316406,0.9882812999999999,0.4013672,0.9765625,21.91162,39.36768,78.38745,-3.9990229999999998,149.5953,-16.98333,-45.875,5.85,1
93610,-0.1025391,0.9086913999999999,0.1455078,3.234863,-14.16016,-15.86914,82.38098,-4.954834,144.8438,15.275,-0.025,0.15,1
93900,0.09667969,1.088379,0.05126953,-7.019043,-33.99658,-14.46533,78.04688,-3.059692,136.3623,-8.916667,-46.23333,6.616667,1
94180,0.00390625,0.9594727,0.1455078,-7.202148,15.44189,21.85059,85.22095,-0.9558105,138.3234,-9.8,-43.475,11.25,1
94470,0.1367188,0.8847655999999999,-0.05419922,-10.37598,21.48438,4.394531,80.21667,-3.482666,143.9099,20.06667,1.425,-1.725,1
94720,-0.15917969999999998,0.8520508,0.42675779999999996,11.2915,-36.43799,24.59717,79.30481,-5.372314,150.9192,-18.43333,-44.25834,7.825,1
94990,0.06396484,0.9477538999999999,-0.048828130000000004,-7.69043,-21.54541,-13.5498,81.54602,-2.312622,142.3279,-12.35,-44.93333,8.058333,1
95290,0.04345703,1.161621,0.06640625,11.90186,-51.69678,-12.75635,78.64014,-2.263184,135.0275,16.90833,3.958333,9.0,1
95530,0.1464844,0.9365234,0.06982422,-16.54053,-32.16553,4.760742,85.06714,0.4504395,128.584,15.66667,-0.9083334,-2.716667,1
95810,0.08447266,1.146484,0.06738281,2.746582,19.40918,16.96777,79.46411,-1.6479489999999999,132.7094,-7.241667,-45.59167,6.558333,1
96120,-0.1459961,0.8369141,0.1396484,4.455566,-1.098633,-15.625,81.37024,-3.460693,133.7805,-7.775,-45.34167,7.566667,1
96420,0.07617188,1.057129,0.05517578,0.06103516,-37.41455,-13.61084,77.34924,-1.51062,127.9468,17.675,6.116667,11.04167,1
96790,0.02832031,0.8291016,0.05908203,-19.53125,7.568359,16.78467,82.51831,-0.7141113,125.343,-2.983333,-45.19167,7.308333,1
98000,-0.1635742,1.168945,0.17871089999999998,8.361816,-17.21191,6.04248,85.19348,1.966553,116.2354,16.05,1.091667,-2.616667,1
98190,0.06445313,0.9023437999999999,-0.046875,-12.146,45.8374,-9.521484,80.69458,-0.6646729,118.3722,-0.8666667,-47.325,4.925,1
98430,0.04199219,0.8916016,0.36523439999999996,22.88818,-52.6123,22.46094,79.96948,-2.686157,123.6621,15.525,3.95,4.116667,1
98700,-0.1054688,0.9160155999999999,0.125,8.483887,-21.42334,-20.20264,84.48486,-1.977539,118.114,16.01667,-0.7416667,-1.566667,1
98910,-0.02001953,0.9165038999999999,-0.009277344,-26.30615,-56.39648,-2.319336,81.03516,0.5218505999999999,110.1489,17.78333,0.6416666999999999,-0.5750000000000001,1
99130,-0.1733398,1.102539,0.20947269999999998,12.69531,18.67676,-7.629395,86.03394,2.021484,102.4969,7.516667,-45.2,6.775,1
99380,0.03320313,0.9101562999999999,0.03515625,-26.61133,30.15137,19.53125,84.58923,-0.7525634999999999,102.7551,13.73333,-0.625,-2.316667,1
99630,-0.1928711,1.41748,0.4223633,5.737305,36.56006,14.95361,80.79346,-1.307373,111.9946,17.45,5.483333,6.0,1
99920,-0.1293945,0.9443359,0.19824219999999998,4.333496,-10.62012,-15.56396,84.27063,-2.653198,111.3684,15.275,1.891667,-0.7000000000000001,1
100140,-0.05712891,0.9951171999999999,0.06689453000000001,-20.81299,-41.1377,-9.216309,79.56299,0.6097412,101.4093,7.458333,-47.18333,2.683333,1
100450,-0.041015630000000004,1.096191,0.2470703,-5.249023,-32.4707,2.197266,84.51782,3.433228,96.58081,15.425,2.45,-3.483333,1
100740,0.07519531,1.06543,0.0390625,1.586914,30.15137,-2.075195,79.48608,1.483154,95.7074,9.533334,-46.71667,2.083333,1
101050,-0.03173828,1.030273,0.2236328,9.033203,-37.23145,-17.76123,81.05713,-1.235962,99.06921,15.19167,2.45,0.6666667,1
101350,-0.05859375,0.9555663999999999,0.07226563,-12.87842,-34.91211,1.159668,78.97522,1.928101,90.26917,13.35,-45.75834,-0.725,1
101660,-0.18261719999999998,1.200195,0.2387695,5.67627,2.990723,-0.9765625,85.29236,3.960571,86.10535,15.98333,-42.625,2.508333,1
101930,0.03808594,0.8515625,0.04931641,-19.04297,7.446289,18.12744,82.7655,0.7250977,85.53955,13.68333,1.35,-1.45,1
102220,-0.5,1.155762,0.5263671999999999,-23.4375,85.87646,26.85547,80.46936,0.33508299999999996,95.85571,17.81667,5.008333,3.041667,1
102410,-0.1411133,0.921875,0.1689453,6.469727,-30.57861,-28.19824,83.69934,-0.3295898,94.08691,14.65,1.4583329999999999,-1.45,1
102610,-0.05761719,0.8964844,-0.04052734,-34.48486,-45.22705,-1.953125,80.83191,3.356323,86.52283,18.175,1.891667,0.1166667,1
102810,0.02832031,1.000488,0.5229492,42.96875,-8.850098,-6.469727,79.78821,2.724609,78.07434,18.475,4.958333,2.975,1
103020,-0.07519531,1.032227,0.11621089999999999,1.037598,1.159668,20.99609,86.79749,4.553833,80.78247,14.075,2.075,-4.491667,1
103230,0.01611328,1.161621,0.03466797,-15.13672,21.78955,-0.9765625,81.90308,1.038208,88.64319,13.475,-43.66667,2.091667,1
103480,-0.02587891,0.8242187999999999,0.3979492,25.39063,-36.31592,24.04785,81.21643,-0.6976317999999999,94.56482,18.08333,3.183333,2.066667,1
103770,0.0,0.9633788999999999,-0.05224609,-11.59668,-8.300781,-13.42773,84.31458,2.526855,89.78027,14.3,-42.18333,2.941667,1
104040,0.1362305,1.003418,0.253418,63.90381,1.953125,-30.57861,84.34204,4.674683,82.47437,18.78333,-38.725,2.091667,1
104330,0.09814453000000001,0.9169921999999999,0.09765625,-15.50293,-11.2915,10.13184,86.80298,4.779053,80.66711,14.79167,0.8833333,-3.825,1
104580,0.01953125,1.123535,-0.03417969,-12.08496,10.49805,3.90625,80.23315,2.9168700000000003,83.86963,16.65833,-41.31667,-0.2666667,1
104860,0.01171875,0.9804687999999999,0.19775389999999998,15.07568,-36.68213,-16.23535,82.54028,-0.19226069999999998,84.07837,15.55833,-41.75,-0.08333334,1
105160,-0.03125,0.996582,-0.06298828000000001,-24.84131,-8.056641,-5.371094,81.99646,3.328857,78.4314,15.96667,1.683333,-2.033333,1
105410,-0.02197266,0.8613280999999999,0.2236328,40.34424,16.54053,-15.50293,83.27637,5.372314,72.90527,20.21667,3.441667,1.133333,1
105680,0.08886719,0.8696288999999999,0.02392578,-24.6582,5.67627,14.22119,82.17224,3.191528,70.36194,21.425,-38.10833,-7.066667,1
105990,-0.23681639999999998,0.8193359,0.409668,18.61572,20.69092,35.15625,79.42566,0.8843994,79.12354,16.99167,-41.675,-4.616667,1
106290,0.002929688,0.8789062999999999,0.05908203,-8.056641,-4.455566,-22.76611,81.7218,2.807007,75.97046,14.65833,-0.40833329999999995,-3.8,1
106670,-0.07324219,1.179688,0.2832031,7.080078,5.004883,-12.20703,85.33081,5.377808,70.70251,22.21667,-36.76667,-5.45,1
106890,0.02587891,0.8408203,0.01757813,-14.70947,10.80322,15.44189,83.94104,1.768799,72.01538,14.55833,-1.091667,-0.06666667,1
107170,0.04394531,1.076172,-0.06982422,0.6103516,13.61084,0.12207029999999999,80.73303,1.807251,74.60815,17.625,6.416667,1.291667,1
107380,0.05859375,1.019043,0.23339839999999998,11.71875,-9.94873,2.13623,82.91382,-0.269165,76.65161,15.14167,2.833333,0.75,1
107590,-0.09863281,0.8457030999999999,-0.07373047,-24.10889,-24.4751,4.150391,81.25488,3.383789,72.76794,19.80833,-40.18333,-8.041667,1
107840,-0.005859375,0.9760742,0.5908203,27.9541,18.49365,-20.93506,79.5575,4.158325,68.6261,17.06667,5.275,1.375,1
108090,0.06152344,0.8706054999999999,0.08056641,-18.9209,0.5493163999999999,14.4043,83.02917,4.213257,66.82434,14.075,-0.7083332999999999,-1.25,1
108390,-0.1811523,1.384766,0.4301758,-9.82666,50.41504,22.03369,80.33752,3.587036,74.63562,18.11667,-42.16667,-6.7,1
108690,-0.06347656,0.9033203,0.144043,4.02832,-17.21191,-22.88818,82.61169,3.070679,72.17468,19.8,-40.99166,-7.358333,1
108970,-0.02978516,0.9375,0.09912109000000001,-15.07568,-35.94971,-3.90625,78.12927,3.9990229999999998,67.70325,19.54167,2.725,1.191667,1
109210,-0.1606445,1.1635739999999999,0.18164059999999999,4.455566,-21.24023,10.92529,84.85291,6.871948,62.79236,23.075,-38.5,-10.275,1
109510,0.1357422,0.9667969,-0.06152344,-1.037598,34.48486,-4.760742,81.55151,3.213501,63.13293,19.325,0.44166669999999997,0.1083333,1
109810,-0.008300781,1.01416,0.2324219,-0.793457,-11.53564,-5.432129,81.58447,0.6811522999999999,67.56592,18.54167,-43.75,-9.975,1
110110,-0.08544922,0.9638671999999999,-0.0625,-32.89795,-35.09521,7.080078,78.8324,3.581543,61.80908,20.9,-42.825,-15.23333,1
110400,-0.1435547,1.104004,0.2280273,13.61084,20.62988,-3.4790039999999998,84.49585,5.245972,57.84302,22.33333,-41.06667,-10.84167,1
110700,0.1157227,0.8413086,-0.02294922,-9.216309,24.53613,-0.793457,81.82617,0.9063721,64.78088,18.13333,-44.38334,-9.233334,1
111050,0.1801758,1.012207,0.40478519999999996,26.61133,-12.08496,12.08496,81.69983,-0.5822754,71.63635,15.91667,3.35,0.7000000000000001,1
111270,-0.04931641,0.8774413999999999,0.1367188,1.464844,-31.98242,-31.18896,83.58398,2.142334,70.42236,16.46667,-0.9583332999999999,-3.391667,1
111490,-0.0625,0.9379883,0.06738281,-22.03369,-35.03418,-2.685547,78.78845,3.35083,65.83557,20.26667,0.7833333,1.425,1
111700,-0.1152344,1.219727,0.2182617,3.78418,-18.18848,2.563477,84.6167,7.294922,63.03955,22.9,-40.35,-7.291667,1
111940,0.009765625,0.8901367,-0.03417969,-19.104,11.47461,11.96289,81.99646,4.295654,62.34741,13.575,0.225,0.2833333,1
112210,-0.005371094000000001,1.141113,-0.06933594,8.605957,12.57324,6.103516,80.26062,4.812012,68.56018,16.00833,5.325,1.475,1
112430,-0.13525389999999998,0.8388671999999999,0.16650389999999998,-1.342773,-18.12744,-18.79883,82.49634,3.010254,68.4668,19.0,-43.85833,-5.783333,1
112680,-0.08984375,0.9062500000000001,0.08300781,-24.96338,-32.59277,1.281738,78.43689,4.279175,63.06702,19.175,1.316667,2.541667,1
112920,-0.12255859999999999,1.062012,0.1948242,-10.00977,-7.202148,12.57324,84.38049,6.591797,59.69971,22.58333,-41.46667,-7.258333,1
113190,0.02587891,0.9169921999999999,-0.03759766,-14.52637,10.74219,8.850098,81.60095,3.9935300000000002,61.00708,15.28333,-1.166667,-0.1666667,1
114430,0.005371094000000001,0.8779296999999999,0.004394531,-21.48438,43.5791,16.23535,83.50708,2.752075,56.28845,15.25,0.5166666999999999,-0.2333333,1
114660,-0.2958984,1.002441,0.3515625,0.793457,28.44238,28.62549,82.05139,2.768555,67.97241,17.05833,4.5,1.45,1
114930,0.07470703000000001,0.9150391,-0.002441406,-6.713867,-20.87402,-16.41846,83.52905,4.257202,62.99011,20.375,-40.48333,-4.566667,1
115200,-0.002441406,0.9985352,0.11621089999999999,-7.202148,-6.286621,-9.82666,79.65637,3.515625,61.66626,18.7,8.616667,3.633333,1
115450,-0.004882813000000001,0.949707,0.1323242,2.01416,-18.73779,16.29639,86.2207,5.905151,58.59558,22.5,-38.44167,-5.325,1
115760,-0.09179688,1.083496,0.16601559999999999,-26.36719,40.03906,10.98633,82.35352,3.746338,64.94568,19.7,-40.49166,-4.691667,1
116030,0.15869139999999998,1.14209,0.2929688,3.051758,-7.93457,7.568359,84.03992,0.6152344,65.87952,15.18333,3.35,1.233333,1
116310,-0.1123047,0.9472655999999999,-0.04785156,-32.2876,-1.098633,3.723145,81.90857,4.026489,63.33069,17.325,0.5333333,-0.975,1
116540,-0.1635742,1.182129,0.1806641,15.86914,5.371094,-16.96777,85.41321,6.514893,59.45801,23.59167,-36.96667,-5.658333,1
116760,0.11621089999999999,0.8359375,0.03662109,-20.26367,10.80322,17.63916,83.62793,3.7408449999999998,57.44202,14.08333,-1.7,-0.1833333,1
117030,-0.03955078,1.049316,-0.02392578,-3.78418,32.2876,7.263184,81.8866,3.361816,63.12744,17.94167,4.991667,1.75,1
117240,0.02197266,1.104004,0.23730469999999998,-2.868652,3.173828,1.7700200000000001,83.80371,0.2801514,66.07727,14.5,2.2,-0.1666667,1
117450,-0.1079102,1.000488,0.044921880000000004,-42.5415,-32.2876,2.563477,79.07959,3.872681,60.95215,21.325,-40.225,-9.666667,1
117700,0.08837891,0.9550780999999999,0.2124023,30.2124,13.48877,-27.46582,83.5675,5.943604,58.88123,19.20833,3.683333,-0.6333333,1
117950,0.06396484,0.8535155999999999,-0.04736328,-15.56396,15.625,8.789063,82.29309,4.0979,62.79785,20.99167,-39.15,-4.908333,1
118190,-0.0390625,1.203125,0.4487305,1.89209,35.21729,17.45605,81.50208,3.938599,66.59912,17.91667,5.8,4.233333,1
118460,-0.1040039,0.8984375,0.2036133,15.01465,-21.78955,-19.04297,84.59473,1.796265,65.63782,15.15,1.141667,-0.775,1
118680,0.03173828,1.029785,0.1040039,-16.05225,-44.06738,-7.873535,79.26086,3.817749,56.42578,22.2,-38.96667,-11.15833,1
118960,0.04833984,0.9521484,0.09912109000000001,10.86426,-3.601074,21.1792,85.90759,6.278687,54.07471,23.29167,-36.675,-6.2,1
119250,0.08984375,0.8095703,-0.02148438,-15.625,27.40479,-1.8310549999999999,82.39197,3.070679,58.06274,18.94167,1.741667,-3.141667,1
119520,0.1420898,1.039063,0.39599609999999996,22.94922,-18.67676,11.96289,81.39221,1.09314,65.20386,16.6,2.625,3.091667,1
119770,-0.05712891,0.9726562999999999,-0.09570313,-26.00098,-6.408691,1.464844,83.15002,4.284668,62.88574,18.99167,-39.63334,-5.058333,1
120080,-0.03222656,1.098145,0.22998049999999998,36.01074,-19.22607,-13.97705,79.73328,3.652954,55.83801,17.06667,4.166667,3.516667,1
120320,0.1723633,0.8613280999999999,0.02539063,-32.2876,24.35303,15.74707,86.08887,4.257202,55.4425,13.741670000000001,-0.9083334,-0.44166669999999997,1
120630,0.02441406,1.16748,0.2807617,5.126953,47.30225,1.8310549999999999,82.88086,3.966064,63.83057,15.56667,7.958333,1.75,1
120870,-0.1323242,0.8461913999999999,0.08984375,-8.422852,-27.16064,-25.6958,82.19421,4.526367,61.01257,20.14167,-38.71667,-6.158333,1
121120,-0.02783203,0.9570312999999999,0.08544922,-23.98682,-22.03369,0.6713867,77.67334,4.454956,55.95337,19.49167,6.733333,4.558333,1
121360,-0.1455078,1.109375,0.2270508,34.17969,8.117676,-20.50781,83.71582,6.487427,54.27246,15.275,3.383333,1.208333,1
121560,0.125,0.8173828,-0.04931641,-15.86914,29.72412,-1.89209,82.88086,2.598267,55.76111,19.76667,-39.525,-7.083333,1
121810,-0.1777344,1.366211,0.4443359,-20.99609,61.40137,24.90234,82.25464,3.015747,64.56665,19.08333,6.625,4.825,1
122100,-0.05322266,0.8818359,0.07568359,-11.65771,-12.51221,-23.92578,83.91907,3.213501,64.58862,18.28333,-40.175,-3.975,1
122380,-0.02050781,0.9765625,0.765625,41.68701,14.89258,-14.89258,80.94727,4.63623,59.4635,20.38333,-38.475,-6.383333,1
122670,-0.05029297,0.9301758,0.10107419999999999,-3.051758,-7.446289,19.9585,86.8689,6.707153,60.15564,13.975,1.108333,-4.15,1
122920,-0.18994139999999998,1.110352,-0.01904297,-20.1416,22.52197,5.67627,82.50183,4.575806,66.37939,17.58333,-39.79167,-3.316667,1
123190,-0.05322266,0.9282227,0.13134769999999998,15.99121,-29.78516,-21.30127,86.23169,2.037964,63.34717,17.60833,-39.81667,-2.591667,1
123490,-0.10644529999999999,0.8886719,-0.05810547,-48.27881,-26.85547,5.126953,81.78223,4.685669,59.21631,18.84167,0.9,-0.8083332999999999,1
123740,-0.17480469999999998,1.293457,0.1953125,11.71875,-1.6479489999999999,7.202148,86.31409,7.805786,55.5304,15.125,1.675,-1.983333,1
124010,0.09277344,0.9282227,-0.03369141,-2.624512,43.27393,-8.605957,81.65588,4.32312,59.25476,20.35833,-39.025,-6.683333,1
124320,-0.08105469,1.032227,0.1606445,15.25879,-20.87402,-11.2915,83.55652,1.450195,65.02258,17.95833,-40.75834,-3.383333,1
124620,-0.052734380000000004,1.007813,0.0703125,-39.18457,-38.63525,4.272461,79.76624,3.944092,54.36035,18.075,0.01666667,1.5833329999999999,1
124990,0.10107419999999999,0.9018554999999999,0.07080078000000001,-28.38135,14.16016,17.51709,87.33032,4.498901,50.73486,22.56667,-37.6,-7.341667,1
125230,0.03222656,0.9926758,-0.1196289,-9.643555,41.68701,-10.25391,83.02368,3.856201,57.50244,17.38333,-1.208333,2.283333,1
125500,-0.3300781,0.8129883,0.47412109999999996,23.25439,-8.422852,44.67773,82.85339,2.27417,65.55542,18.59167,2.641667,-0.35000000000000003,1
125710,-0.1557617,0.8730469,0.1328125,-18.06641,-0.3662109,-17.21191,84.00146,2.103882,62.87476,14.975,0.008333334000000001,-0.975,1
125920,-0.046875,1.059082,-0.0546875,13.3667,-22.64404,-7.93457,81.24939,3.856201,60.19409,20.46667,-39.68333,-5.483333,1
126160,-0.06494141,1.16748,0.190918,-8.911133,-27.46582,-17.94434,87.19299,7.119141,56.93665,14.95,1.566667,-2.266667,1
126410,0.1323242,0.7773437999999999,0.06152344,0.7324219,34.79004,-1.037598,80.92529,4.751587,55.10742,22.125,-38.225,-7.65,1
126660,-0.3374023,1.229492,0.35791019999999996,-19.16504,35.33936,25.87891,80.87036,4.130859,62.46277,18.00833,4.891667,-0.2333333,1
126930,-0.06005859,0.8491211,0.1137695,-3.417969,-27.83203,-21.78955,81.65039,4.147339,56.47522,21.5,-38.55833,-7.241667,1
127240,0.1333008,1.118164,0.7924804999999999,67.50488,17.82227,-30.76172,79.72778,4.8614500000000005,48.81775,23.95,-36.875,-9.433333,1
127510,0.0546875,0.8886719,0.1811523,-4.333496,-30.88379,9.765625,83.36975,5.9545900000000005,46.80176,13.64167,1.516667,-2.125,1
127750,-0.1079102,1.032227,-0.03222656,-1.7700200000000001,14.4043,-0.3662109,79.67285,4.592285,48.60901,22.33333,-38.25834,-9.825,1
128020,-0.1157227,0.8447266,0.2001953,2.319336,1.586914,-15.68604,83.07861,2.06543,51.50391,20.725,-39.51667,-7.725,1
128320,-0.15917969999999998,0.8354492,-0.01904297,-15.19775,-22.33887,9.094238,78.92578,3.493652,48.55408,18.28333,1.95,0.6833332999999999,1
128570,0.01953125,1.140137,0.1538086,-4.333496,8.422852,-7.995605,84.1333,6.437988,48.22449,23.38333,-36.93333,-7.783333,1
128850,0.08349609,0.8735352,-0.01806641,-5.981445,49.86572,-6.408691,80.94177,4.075928,56.61255,17.86667,-2.275,-0.2666667,1
129180,0.09179688,1.035645,0.2260742,24.59717,-42.41943,9.277344,82.69409,1.516113,60.51819,14.975,2.116667,0.1166667,1
129490,-0.09326172,0.8798828,0.0009765625,-34.11865,-23.13232,4.333496,80.25513,4.702148,55.99182,19.15,1.625,0.47500000000000003,1
129720,0.2104492,1.114746,0.16259769999999998,51.2085,10.31494,-34.17969,82.66663,6.624756,51.28418,20.05,3.066667,0.2333333,1
130920,0.1879883,1.11084,0.3198242,37.8418,22.82715,-38.45215,83.54004,5.762329,48.02124,18.73333,1.258333,2.233333,1
131130,0.20947269999999998,0.8154296999999999,0.05566406,-24.96338,18.43262,21.48438,86.39099,4.779053,49.00452,14.3,-0.9500000000000001,-1.508333,1
131340,0.07324219,1.150879,0.06689453000000001,-29.54102,45.77637,-13.00049,83.27637,4.724121,55.82703,20.91667,3.258333,0.8083332999999999,1
131560,-0.05224609,0.9609375,0.1796875,1.89209,-18.85986,-20.1416,84.01794,1.867676,57.50793,20.7,-40.625,-4.975,1
131800,0.030273440000000002,0.9086913999999999,-0.06152344,-19.65332,-23.37646,-6.286621,82.39746,5.251465,53.07495,15.81667,2.683333,-2.908333,1
132050,-0.060546880000000004,0.9746094,0.3974609,43.70117,33.26416,-30.76172,82.09534,6.602783,44.99451,26.90833,-36.75834,-11.825,1
132290,0.05078125,0.8857421999999999,0.08105469,-32.89795,22.27783,18.67676,84.24866,5.668945,46.05469,14.31667,-0.2833333,-2.55,1
132570,0.07324219,1.209961,0.30224609999999996,1.8310549999999999,57.73926,21.66748,80.61768000000001,5.097656,56.44226,23.03333,-41.54167,-6.066667,1
132881,-0.1679688,0.8671875,0.1308594,-0.8544921999999999,-25.5127,-23.98682,83.50708,4.735107,56.53015,16.43333,-1.925,-3.15,1
133170,-0.05371094,1.105469,0.1889648,29.23584,-8.178711,-7.629395,78.48083,4.987793,47.37854,27.55,-39.50834,-10.40833,1
133480,0.06152344,0.8295897999999999,0.03417969,-26.00098,42.84668,20.93506,86.07788,4.125366,53.10791,14.30833,-1.825,-2.991667,1
133780,-0.1416016,1.26709,0.4716797,-19.89746,52.55127,19.9585,82.88635,3.922119,63.34717,20.28333,-42.73333,-2.45,1
134090,-0.08642578000000001,0.8339844,0.1118164,-21.66748,-28.56445,-24.96338,84.14978,5.278931,59.52393,23.75,-39.075,-4.6,1
134360,0.03564453,0.9614258,0.09130859,3.234863,-35.88867,-5.859375,78.40942,4.833984,53.54187,14.61667,12.69167,13.44167,1
134610,0.1298828,0.8413086,0.121582,-16.90674,-27.64893,22.15576,86.85791,6.218262,51.67969,13.66667,1.3333329999999999,-4.141667,1
134940,0.0,0.9399413999999999,-0.184082,4.394531,16.96777,-2.868652,81.62292,5.130615,58.58459,16.78333,8.675,1.566667,1
135220,-0.1762695,0.8549804999999999,0.11425779999999999,-0.5493163999999999,-13.61084,-22.82715,86.50085,3.641968,58.56262,15.05833,-1.283333,-0.5333333,1
135450,-0.09472656,0.9619141,0.06738281,-31.73828,-31.25,5.126953,82.61169,4.784546,52.94312,18.90833,-0.625,2.233333,1
135660,-0.20166019999999998,1.134766,0.1386719,7.629395,-9.460449,17.08984,88.33008,7.976074,51.07544,26.31667,-34.90833,-4.158333,1
135910,0.03857422,0.8818359,-0.0625,-19.9585,35.33936,10.37598,85.578,4.257202,53.90991,16.51667,-1.8,-1.291667,1
136180,0.07324219,1.093262,-0.06933594,6.9580079999999995,20.1416,0.24414059999999999,83.50159,5.350342,60.47424,14.79167,6.716667,0.425,1
136400,-0.18945309999999999,0.8813477,0.109375,-1.403809,-10.98633,-17.08984,86.56677,3.433228,59.77661,21.85833,-38.93333,-1.4583329999999999,1
136640,-0.09912109000000001,0.9003905999999999,0.07373047,-30.15137,-30.51758,3.90625,81.32629,4.416504,55.14587,17.85833,-0.40833329999999995,1.0,1
136880,0.23730469999999998,1.062988,0.206543,57.12891,-15.31982,-33.38623,85.05066,5.690918,49.48792,19.45833,1.925,1.616667,1
137100,0.015625,0.8837891,-0.04150391,-14.89258,24.35303,14.28223,85.62195,2.768555,52.02026,14.3,-0.4666667,0.4583333,1
137400,-0.4008789,0.8583984,0.5009766,12.3291,17.82227,40.34424,84.09485,2.235718,60.89172,19.8,-40.65833,-0.3916667,1
137700,0.04003906,0.8798828,0.02294922,-1.464844,-21.85059,-20.32471,87.13806,5.004272,57.82104,15.21667,-0.1916667,-5.9,1
138010,0.12695309999999999,0.9589844,0.4995117,70.55664,-22.33887,-27.16064,83.66638,5.300903,46.42273,27.01667,-36.31667,-7.325,1
138300,0.08007813,0.8437500000000001,0.06152344,-39.67285,23.37646,14.09912,84.8584,4.833984,43.67615,26.2,-37.89167,-9.583333,1
138600,-0.2749023,1.412598,0.4023438,-14.89258,63.96484,30.51758,83.71582,3.636475,51.72363,23.41667,-39.51667,-4.083333,1
138890,-0.03808594,0.9052734,0.1259766,-2.258301,1.525879,-18.37158,85.63843,2.9608149999999998,52.17407,14.49167,1.016667,-0.7000000000000001,1
139180,-0.08007813,0.9819336,0.0390625,-14.95361,-22.76611,-4.882813,79.84863,4.180298,49.68018,21.20833,11.775,7.025,1
139380,-0.159668,1.101563,0.2246094,26.18408,16.35742,-12.75635,87.22595,7.020264,48.50464,17.025,2.266667,-0.6166667,1
139600,0.026367190000000002,0.8764647999999999,0.07861328000000001,-36.19385,23.55957,16.29639,85.79773,4.498901,51.27869,13.68333,-0.6583333,-2.291667,1
139810,-0.04443359,1.12793,0.16601559999999999,-15.19775,14.89258,-1.708984,82.04041,3.911133,55.23376,23.41667,6.583333,-0.7000000000000001,1
140020,-0.09082031,0.8725586,0.21386719999999998,5.554199,-1.8310549999999999,-17.51709,84.66064,1.126099,54.49219,22.0,-40.85833,-1.7,1
140260,-0.0078125,0.9409179999999999,-0.03613281,-26.42822,-11.90186,0.06103516,83.37524,4.77356,50.63049,17.1,0.425,-1.233333,1
140510,-0.1079102,0.9702147999999999,0.3110352,27.22168,-9.887695,-22.58301,85.79773,6.020508,36.58447,28.65833,-36.575,-10.90833,1
140760,0.1098633,0.8164062999999999,0.04443359,-26.61133,18.00537,16.6626,84.84741,3.323364,33.49182,13.98333,-0.8083332999999999,-1.183333,1
141030,-0.03173828,1.253906,0.4169922,-5.187988,42.84668,6.896973,81.82617,3.301392,39.66064,25.64167,-39.51667,-10.51667,1
141340,-0.09912109000000001,0.8188477,0.08886719,-2.502441,-12.57324,-26.48926,84.99573,3.422241,41.31409,15.31667,-1.516667,-4.908333,1
141640,-0.02050781,1.016602,0.4091797,27.16064,0.6103516,-0.7324219,81.93054,4.515381,35.4364,28.09167,-37.00834,-12.5,1
141940,0.05566406,0.8686522999999999,0.0390625,-35.64453,53.34473,17.15088,87.29187,4.053955,42.43469,14.3,-1.075,-2.333333,1
142240,-0.0703125,1.356445,0.45166019999999996,-21.54541,69.0918,8.483887,83.64441,3.4002689999999998,53.84949,21.41667,-41.55,-2.891667,1
142540,-0.03320313,0.9189453,0.1318359,-1.037598,-26.18408,-19.40918,86.74805,2.9882809999999997,53.50891,22.51667,-40.25,-2.133333,1
142820,-0.08691406,0.8847655999999999,0.1123047,-2.380371,-58.41064,-3.051758,82.43042,2.5872800000000002,47.68066,16.98333,7.666667,7.116667,1
143070,0.15478519999999998,0.8759766,0.1679688,-9.58252,-50.41504,-2.197266,86.80298,5.778809,29.525760000000002,14.7,1.7083329999999999,-3.341667,1
143370,0.008300781,0.9721679999999999,-0.05175781,10.37598,-28.50342,-24.96338,82.35352,5.83374,21.00586,20.43333,7.45,0.15,1
143710,-0.140625,0.9506836,0.1616211,-6.164551,-91.97998,-10.37598,84.98474,6.190796,10.59631,15.35,1.491667,-0.48333329999999997,1
143910,0.05371094,0.9780272999999999,-0.09033203000000001,-7.019043,-130.188,-16.78467,80.28809,7.745361,-15.12817,17.03333,-0.36666669999999996,-0.8333332999999999,1
144130,-0.044921880000000004,0.8793945,0.1875,17.8833,-107.605,-26.36719,78.39294,3.444214,-50.51514,1.633333,-31.25,-57.85833,1
144370,0.1992188,0.9995117,0.03271484,-17.15088,-77.39258,1.281738,77.72278,1.279907,-67.53296,15.01667,1.025,-2.208333,1
144640,0.07519531,0.9702147999999999,0.1123047,-8.972168,-25.93994,-24.71924,74.14124,0.2801514,-77.95898,17.21667,0.2833333,0.75,1
144860,0.1367188,1.091797,0.24414059999999999,19.28711,-54.32129,-8.483887,77.89307,1.428223,-85.28137,-21.9,-31.3,-57.56667,1
145100,0.08886719,0.9213867,0.04150391,1.8310549999999999,-59.57031,-22.52197,79.16199,2.631226,-98.88245,16.56667,-0.8416665999999999,-2.866667,1
145350,0.008300781,1.171875,0.08935547,18.85986,-51.14746,-15.25879,75.93201,0.9558105,-112.4506,-36.275,-33.25834,-48.91667,1
145620,0.026367190000000002,1.089355,0.12207029999999999,7.751465,-23.37646,-4.516602,80.37598,2.598267,-116.12,16.18333,1.966667,-1.766667,1
145870,0.1025391,0.9169921999999999,0.046875,-23.01025,30.82275,-5.981445,74.58618,-0.703125,-115.8618,-38.98333,-30.95,-49.38334,1
146170,0.1181641,0.9272461,0.41210939999999996,13.48877,-30.94482,1.8310549999999999,74.98718,-1.345825,-111.5057,16.11667,3.533333,1.183333,1
147450,-0.01855469,0.8881836,0.390625,22.03369,-19.59229,16.29639,74.09729,-2.449951,-120.3442,15.33333,4.008333,0.8583333999999999,1
147700,-0.06933594,0.9438477,-0.03271484,-24.84131,-7.629395,-9.887695,75.43213,0.8734130999999999,-122.1954,15.96667,1.7083329999999999,-2.233333,1
147970,-0.09863281,0.9765625,0.2797852,27.22168,18.79883,-10.62012,78.01392,2.70813,-127.8973,-44.275,-33.90833,-37.05833,1
148280,0.05712891,0.8935546999999999,0.1640625,-28.68652,5.310059,17.94434,76.70654,1.235962,-128.2434,14.825,-0.04166667,-1.983333,1
148520,-0.10644529999999999,1.362793,0.4077148,-2.441406,41.3208,18.00537,72.15271,0.1757813,-120.2783,16.65833,7.258333,2.041667,1
148830,-0.03417969,0.8754883,0.152832,6.591797,-14.70947,-28.56445,73.94348,0.3570557,-124.6783,15.78333,-0.40833329999999995,-2.425,1
149070,-0.07226563,1.290039,0.2460938,13.97705,-1.159668,-7.568359,70.44983,1.983032,-128.996,-45.55833,-31.91667,-38.00834,1
149310,-0.15039059999999999,1.076172,0.215332,-2.746582,-2.319336,16.60156,77.33276,4.312134,-127.4689,15.73333,1.783333,-3.0,1
149550,0.09326172,0.9077147999999999,-0.04931641,-19.34814,0.5493163999999999,13.24463,74.17969,0.27465819999999996,-127.1448,18.525,0.09166667,-3.116667,1
149760,-0.03759766,0.7802734,0.4570313,17.15088,-19.71436,13.12256,71.95496,-0.6317138999999999,-115.5212,-45.01667,-28.16667,-43.175,1
150010,-0.11425779999999999,0.8671875,0.125,9.094238,-7.995605,-19.59229,74.75647,0.8294678,-117.8009,15.28333,0.6166667,-0.975,1
150290,-0.14697269999999998,0.9638671999999999,0.1000977,-11.90186,-53.77197,3.723145,71.96045,1.9885249999999999,-121.3275,19.675,0.8833333,1.775,1
150500,-0.1772461,1.220215,0.19775389999999998,2.01416,10.55908,13.79395,79.16199,4.108887,-124.0741,-44.74166,-33.68333,-33.63334,1
150740,0.01855469,0.8442383,-0.0390625,-23.55957,26.97754,16.29639,75.23438,0.9283446999999999,-120.6464,15.63333,-1.108333,0.31666669999999997,1
150990,-0.36425779999999996,0.8564453,0.4399414,2.502441,-15.99121,18.37158,71.92749,0.9008788999999999,-111.1761,-44.31667,-28.15,-42.45833,1
151260,-0.07861328000000001,0.9086913999999999,0.1757813,11.2915,-18.24951,-22.94922,74.69604,1.323853,-117.4109,14.575,1.191667,-0.7083332999999999,1
151500,0.03515625,1.158203,0.04443359,-7.202148,-27.28271,-16.8457,70.03235,2.993774,-122.1899,-44.9,-30.6,-36.825,1
151810,0.03955078,0.859375,0.1689453,4.211426,-18.79883,14.83154,77.89307,3.24646,-124.3213,14.7,0.2083333,-2.258333,1
152100,0.08056641,1.180176,-0.01904297,-17.57813,28.74756,8.483887,72.15271,1.1920169999999999,-119.4818,-44.90833,-28.89167,-38.39167,1
152410,-0.05859375,0.8613280999999999,0.22167969999999998,5.981445,-22.58301,-27.16064,73.65784,0.9832763999999999,-115.0928,-44.13334,-29.45833,-38.675,1
152690,-0.07226563,0.8627929999999999,0.04003906,-28.01514,-17.82227,-4.760742,72.41638,4.696655,-119.2181,18.03333,1.9000000000000001,-0.7916667,1
152930,-0.2080078,1.074219,0.2763672,20.38574,36.74316,-10.86426,76.33301,5.031738,-125.0793,-42.9,-33.16667,-31.60833,1
153280,0.17431639999999998,0.8496094,-0.05810547,-12.51221,-0.6103516,-0.3662109,74.13025,0.5328369,-122.6019,18.10833,-1.308333,-1.5,1
153480,-0.35693359999999996,1.311523,0.3271484,-17.15088,77.69775,24.96338,71.46606,1.367798,-114.917,15.85,7.566667,-0.6000000000000001,1
153690,-0.05712891,0.9194336,0.2416992,1.6479489999999999,-5.249023,-16.41846,71.9165,0.8294678,-112.5824,13.875,2.8083329999999997,0.6916667,1
153900,-0.1542969,0.9365234,0.05322266,-18.85986,0.8544921999999999,-7.141113,71.40564,4.037476,-113.0603,19.10833,0.85,0.5750000000000001,1
154110,-0.03271484,0.9370117,0.2641602,25.93994,-10.31494,-15.56396,75.19043,4.32312,-120.7727,-41.20833,-33.875,-33.85,1
154370,0.1015625,0.8789062999999999,0.1616211,-32.89795,0.6103516,19.22607,74.76196,2.889404,-120.7892,13.60833,1.6,-2.775,1
154610,0.1098633,1.341797,0.23779299999999998,-12.63428,42.5415,12.81738,69.35669,2.25769,-111.5002,-40.4,-29.78333,-42.80833,1
154860,0.001953125,0.9194336,0.3286133,12.26807,-34.60693,-8.728026999999999,71.37817,2.070923,-108.6877,14.34167,3.575,2.325,1
155130,-0.08398438,0.9243163999999999,-0.06201172,-12.45117,-34.91211,7.69043,70.98267,4.416504,-113.1702,-40.29167,-32.39167,-39.69167,1
155440,-0.09912109000000001,1.019531,0.2661133,-7.141113,-21.78955,1.89209,76.61316,6.432495,-118.092,14.48333,2.958333,-3.016667,1
155740,0.1123047,1.005371,0.03076172,0.06103516,15.13672,-6.896973,71.02661,2.427979,-118.3557,-41.575,-33.05833,-38.18333,1
156040,-0.10693359999999999,0.8198242,0.3056641,10.49805,-26.24512,0.06103516,71.0321,1.658936,-113.4229,14.60833,3.266667,1.625,1
156340,-0.1381836,0.8305663999999999,0.02294922,-19.9585,-18.31055,7.446289,69.505,4.130859,-117.1967,-41.125,-33.68333,-37.43333,1
156650,-0.1445313,1.207031,0.265625,8.605957,4.272461,0.1831055,75.52002,5.158081,-121.4319,-40.69167,-35.725,-31.53333,1
156930,0.12402339999999999,0.8891602,-0.005371094000000001,-1.8310549999999999,38.0249,-2.502441,72.10876,1.30188,-117.3505,-41.36666,-32.775,-36.43333,1
157230,-0.08740234,0.8583984,0.28125,4.516602,-26.06201,-2.258301,72.29553,1.120605,-111.8573,-40.9,-31.475,-37.94167,1
157570,-0.1025391,1.015137,-0.01416016,-7.568359,-43.94531,12.45117,70.45532,3.911133,-115.9003,20.14167,6.416667,1.925,1
157800,0.03710938,0.8530272999999999,0.2749023,32.71484,19.71436,-19.47021,74.64111,4.229736,-120.0092,19.76667,3.783333,-0.3416667,1
158020,0.08154297,0.9106445,0.15820309999999999,-22.33887,-13.18359,16.78467,76.00342,3.279419,-120.097,13.95,0.675,-2.208333,1
158230,0.06884766,1.238281,0.18603519999999998,3.234863,21.60645,7.8125,71.93298,1.939087,-114.6918,-39.625,-31.55,-37.1,1
158471,0.060546880000000004,0.9941405999999999,0.2460938,8.361816,-24.10889,-7.873535,74.25659,-0.4394531,-113.5217,15.125,2.833333,1.258333,1
158740,0.02001953,0.887207,0.03662109,4.394531,-6.469727,-14.16016,74.67407,2.202759,-117.2571,14.71667,0.06666667,-0.24166669999999998,1
158960,-0.001464844,0.9521484,0.38769529999999996,61.4624,-2.197266,-32.16553,72.59766,2.817993,-119.729,-39.19167,-32.78333,-33.60833,1
159210,-0.002929688,0.9433594,0.1855469,-6.286621,-8.300781,11.65771,76.28357,4.432983,-120.1135,14.54167,0.24166669999999998,-2.791667,1
159450,-0.05224609,1.263184,-0.01660156,-21.48438,33.38623,13.61084,71.12549,3.444214,-112.9559,-37.68333,-30.525,-40.44167,1
159720,0.0546875,0.9423828,0.40625000000000006,9.399414,-26.85547,7.263184,72.17468,1.389771,-107.2211,15.41667,3.775,1.091667,1
159971,-0.08789063,0.8417969,0.017089840000000002,-18.31055,-29.23584,-4.089355,71.3562,4.421997,-115.0433,-39.375,-31.475,-39.15833,1
160270,0.00390625,1.012695,0.27832029999999996,16.17432,40.77148,-21.48438,75.1355,4.625244,-119.317,15.56667,3.183333,0.6416666999999999,1
160570,0.020996090000000002,0.8754883,-0.03125,-10.62012,21.42334,9.460449,72.96021,1.6479489999999999,-110.7092,-40.18333,-30.58333,-41.03333,1
160870,0.02832031,0.7480469,0.41992189999999996,28.32031,-45.16602,12.87842,72.09229,1.186523,-101.3434,-39.33333,-28.51667,-45.19167,1
161150,-0.07617188,0.8540038999999999,0.128418,10.31494,-3.356934,-20.38574,74.08081,2.801514,-103.4528,15.025,0.075,-1.625,1
161400,-0.1201172,1.19043,0.27783199999999997,13.5498,-15.80811,-14.64844,70.17517,3.658447,-109.9457,13.73333,4.441667,4.275,1
161700,0.08886719,0.9130859,0.1733398,-19.04297,-12.63428,9.887695,75.99243,4.872437,-109.7424,13.9,-0.2166667,-1.625,1
162040,0.05419922,1.218262,0.1499023,-5.7983400000000005,34.60693,11.23047,71.88904,4.125366,-103.1781,13.04167,6.383333,1.575,1
162240,0.01074219,0.9858397999999999,0.28613279999999996,12.51221,-25.02441,-7.263184,73.76221,1.340332,-102.0575,15.31667,3.075,0.47500000000000003,1
162460,-0.1137695,0.9443359,0.03808594,-35.88867,-50.354,6.835938,71.2738,3.636475,-108.8361,-43.85833,-31.20833,-40.3,1
162700,0.1616211,0.8999022999999999,0.28125,42.72461,15.13672,-24.90234,75.94849,4.828491,-113.9612,19.86667,3.325,1.116667,1
163950,0.03417969,0.9272461,0.246582,46.32568,-1.220703,-16.11328,74.09729,4.152832,-115.4224,19.51667,4.658333,-0.225,1
164170,0.08105469,0.921875,0.1801758,-14.5874,-9.216309,17.51709,75.89355,3.922119,-114.9829,14.23333,0.8083332999999999,-2.458333,1
164390,0.15136719999999998,0.875,0.05712891,-2.075195,48.0957,-2.502441,72.13074,2.444458,-111.1322,20.85,2.108333,1.383333,1
164600,-0.03417969,0.9296875,0.265625,6.04248,-24.84131,-10.74219,74.34448,1.065674,-104.5349,-39.41667,-31.79167,-38.25,1
164840,0.02685547,0.9042969,0.05126953,-3.967285,-21.91162,-20.08057,74.26758,4.345093,-111.2915,16.26667,-0.6666667,-3.041667,1
165090,-0.0004882813,0.9643554999999999,0.5195313,54.99268,7.202148,-6.164551,73.42163,3.729858,-115.2356,-38.95833,-34.38334,-32.925,1
165360,-0.06494141,0.8969727,0.1464844,-5.065918,-14.4043,15.01465,77.58545,4.784546,-113.0933,14.125,1.5,-3.4,1
165600,-0.04638672,1.271484,0.04785156,-23.62061,24.59717,5.981445,73.42712,2.724609,-107.9077,-38.58333,-32.19167,-38.45833,1
165910,0.011230470000000001,0.8999022999999999,0.1679688,10.43701,-20.69092,-23.80371,75.41016,1.213989,-103.634,14.80833,1.475,-0.85,1
166210,0.01416016,1.019043,0.07958984,3.173828,-29.41895,-13.79395,70.85083,2.774048,-108.6713,-38.65,-31.93333,-38.48333,1
166520,-0.09033203000000001,1.025879,0.159668,2.441406,-0.5493163999999999,14.46533,78.30505,6.580811,-108.4131,-36.375,-34.94167,-35.33333,1
166790,0.1767578,0.8505859,-0.04736328,-21.54541,-8.544922,6.652832,74.27307,3.03772,-108.8855,19.09167,3.425,-3.333333,1
167070,0.23730469999999998,0.9589844,0.4379883,23.07129,-14.70947,9.460449,72.94922,0.7525634999999999,-103.8647,14.89167,4.058333,1.3,1
167270,-0.06835938,0.8701171999999999,0.1396484,8.911133,-2.075195,-19.83643,74.5697,2.2796629999999998,-104.1229,15.991670000000001,-0.9416667,-1.9583329999999999,1
167460,-0.0703125,0.9501953,0.15917969999999998,-15.13672,-30.70068,-1.953125,71.49353,3.3728029999999998,-105.7764,20.3,7.158333,6.408333,1
167671,-0.1948242,0.9853516,0.2578125,30.51758,20.56885,-22.15576,78.89282,6.459961,-107.4518,16.29167,3.091667,-0.8916666,1
167880,0.1015625,0.8989258,0.05615234,-29.35791,-5.92041,16.11328,77.83264,3.88916,-108.9404,14.65833,-0.7916667,-3.141667,1
168090,0.05224609,1.231934,0.27783199999999997,1.8310549999999999,39.42871,19.71436,72.88879,3.383789,-100.1624,-35.575,-30.19167,-42.35833,1
168340,-0.01904297,0.9287109,0.300293,2.441406,-13.85498,-14.16016,73.30078,1.587524,-100.86,14.975,2.833333,0.65,1
168620,-0.01806641,0.9125977,0.02734375,-14.22119,-15.44189,-10.13184,72.74048,3.949585,-105.1556,16.70833,1.608333,-3.1,1
168840,-0.05712891,0.8867187999999999,0.2436523,34.60693,36.31592,-12.39014,75.55847,4.520874,-111.5167,18.43333,3.8,0.1416667,1
169100,0.07861328000000001,0.8916016,0.14306639999999998,-22.03369,15.31982,15.38086,77.2229,4.432983,-106.6388,14.96667,-0.6666667,-1.783333,1
169320,0.1079102,1.051758,-0.07617188,-14.77051,37.41455,-0.7324219,73.61938,3.614502,-100.1733,21.55833,2.891667,-1.608333,1
169560,0.005371094000000001,0.9628905999999999,0.3007813,8.728026999999999,-29.60205,-6.835938,73.21838,0.9722900000000001,-97.77832,14.975,2.683333,0.8916666,1
169830,-0.11621089999999999,0.8476562999999999,0.04296875,-37.78076,-25.20752,-4.394531,70.96069,3.339844,-105.9961,-40.95833,-28.58333,-41.075,1
170140,-0.09375000000000001,1.193359,0.2729492,2.929688,5.310059,-4.821777,77.80518000000001,6.871948,-106.4026,15.991670000000001,1.825,-3.025,1
170470,0.12695309999999999,0.9423828,0.06542969,-5.615234,19.9585,-3.4790039999999998,71.93298,4.476929,-102.8046,20.375,-0.1416667,-0.875,1
170760,0.0004882813,0.9125977,0.35693359999999996,3.723145,-38.08594,-2.441406,72.04285,1.779785,-97.7124,14.20833,4.416667,1.4,1
171080,-0.1401367,0.9145508,-0.04736328,-23.37646,-15.86914,6.04248,71.54297,5.07019,-106.8695,20.69167,1.466667,-0.3916667,1
171400,-0.1650391,1.053223,0.3286133,8.361816,27.64893,-15.74707,75.96497,6.564331,-110.5444,14.94167,3.183333,-0.8416665999999999,1
171630,0.06689453000000001,0.8549804999999999,0.08007813,-25.32959,25.57373,17.57813,74.42139,4.301147,-107.9242,14.78333,-1.15,-0.5333333,1
171850,-0.19775389999999998,1.349609,0.409668,-9.460449,31.55518,21.91162,72.35046,2.977295,-97.51465,-41.35,-30.025,-42.35,1
172130,-0.01318359,0.8481445,0.2089844,3.967285,-18.55469,-23.07129,73.56445,2.219238,-99.71191,14.85833,2.65,-0.08333334,1
172330,0.03173828,1.111816,0.1420898,-4.333496,-17.76123,-8.056641,70.20813,4.630737,-103.6285,-40.55,-31.74167,-39.95833,1
172570,-0.1259766,0.9848633,0.2685547,17.08984,21.42334,-14.77051,76.6626,6.948853,-105.3644,15.09167,3.266667,-1.608333,1
172850,0.10644529999999999,0.8754883,0.1201172,-19.104,5.493164,18.31055,75.25635,4.367065,-105.9576,14.375,-0.7916667,-0.5916667,1
173070,-0.11474609999999999,1.4375,0.49755859999999996,-23.98682,45.34912,20.62988,72.76245,3.812256,-95.69641,-38.7,-30.20833,-42.55,1
173350,-0.01904297,0.8320312999999999,0.1650391,6.774902,-20.69092,-24.16992,74.75098,3.164063,-99.19006,-39.03333,-31.60833,-39.40833,1
173650,-0.01806641,1.013184,0.11621089999999999,-6.591797,-35.70557,-4.760742,71.22437,2.719116,-104.1559,20.54167,3.791667,4.166667,1
173920,-0.05029297,1.01123,0.16699219999999998,-4.821777,-2.13623,21.24023,78.5083,4.833984,-104.859,15.2,2.033333,-3.058333,1
174160,0.1123047,1.13623,0.12451169999999999,-24.84131,54.50439,1.89209,73.50403,2.828979,-98.84949,-38.15,-30.49167,-41.41667,1
174430,0.12744139999999998,0.8154296999999999,0.3896484,20.01953,-29.90723,11.04736,73.41614,0.9173583999999999,-93.63647,15.66667,4.358333,0.275,1
174710,-0.04394531,0.8891602,0.01660156,-16.11328,-21.05713,-6.774902,72.59216,3.856201,-100.5908,17.3,2.25,0.6416666999999999,1
174990,-0.1645508,0.980957,0.24853519999999998,21.24023,7.93457,-10.74219,77.70081,5.2624509999999995,-105.4358,16.68333,3.208333,-1.283333,1
175320,0.09228516,0.8203125,-0.07275391,-6.164551,13.12256,1.464844,74.72351,3.493652,-103.7549,19.08333,-1.116667,-1.691667,1
175590,0.04443359,0.9565429999999999,0.3613281,18.12744,-0.06103516,4.638672,73.43262,0.9832763999999999,-95.27893,16.175,4.875,0.7083332999999999,1
175960,0.004394531,1.002441,0.1411133,-0.06103516,-46.75293,-1.8310549999999999,70.62561,2.922363,-98.48694,-40.04167,-30.46667,-41.10833,1
176230,-0.05175781,0.9492187999999999,0.2724609,34.60693,8.361816,-17.94434,77.47559,5.482178,-101.1182,17.85,2.558333,-0.7916667,1
176470,0.1323242,0.8955078,0.09228516,-37.8418,5.981445,14.46533,76.82739,4.334106,-101.3104,13.85833,-0.45,-2.691667,1
176680,0.13476559999999999,1.260254,0.2026367,10.13184,59.38721,23.98682,72.724,3.614502,-90.401,-38.70833,-30.5,-44.78333,1
176920,-0.03369141,0.9511719,0.2529297,8.666992,-19.71436,-16.54053,74.56421,1.483154,-89.54407,14.625,3.166667,0.6583333,1
177170,0.056640630000000004,1.005859,0.11669919999999999,-11.23047,-57.67822,-5.859375,71.32324,2.25769,-100.3876,-42.525,-32.1,-37.71667,1
177420,-0.09228516,0.9594727,0.2807617,35.64453,21.91162,-22.46094,77.21191,3.543091,-105.1611,16.46667,3.333333,0.0,1
177690,-0.005859375,0.8608397999999999,-0.030273440000000002,-9.094238,52.85645,13.06152,76.32751,1.829224,-95.14709,-40.04167,-33.3,-38.10833,1
178000,-0.20214839999999998,0.9780272999999999,0.48876949999999997,7.873535,-33.5083,20.01953,76.85486,0.6591796999999999,-86.66565,18.925,2.975,-0.7833333,1
178300,0.03613281,0.8549804999999999,-0.03417969,-12.81738,-9.460449,-14.77051,76.94275,4.042969,-92.54333,-38.25,-33.95,-38.35833,1
178600,0.0,0.9111328,0.3378906,24.04785,16.11328,-15.01465,76.8219,4.592285,-99.02527,17.725,2.75,-1.625,1
178930,0.1171875,0.9194336,-0.004882813000000001,-12.63428,-19.16504,4.577637,73.98743,1.96106,-102.2113,14.39167,2.4,-1.266667,1
179200,-0.3691406,0.9916992,0.4487305,3.78418,-8.728026999999999,14.52637,71.61987,2.1698,-94.47144,-39.95,-32.35,-38.45,1
180440,-0.45117189999999996,1.132813,0.4956055,-36.86523,56.51855,34.30176,73.07556,3.526611,-90.58228,18.6,7.233333,1.433333,1
180740,-0.041015630000000004,0.8305663999999999,0.1137695,6.713867,-19.40918,-24.90234,75.42664,3.55957,-92.0874,-37.70833,-33.875,-39.61666,1
181010,0.04833984,1.155273,0.5859375,33.44727,-1.708984,-11.90186,72.50977,3.669434,-98.67371,-38.68333,-34.425,-37.425,1
181350,0.03759766,0.8427734,0.04443359,-18.98193,22.58301,18.49365,79.74976,4.537354,-95.04272,14.45833,-0.9666665999999999,-1.475,1
181550,0.044921880000000004,1.12793,0.01953125,-8.239746,25.32959,-1.159668,76.95923,3.894653,-88.9563,-36.18333,-33.41667,-42.0,1
181780,-0.09521484000000001,0.8085937999999999,0.43554689999999996,13.30566,-54.50439,31.49414,76.1792,2.537842,-81.58997,17.61667,2.791667,1.7,1
181980,-0.09521484000000001,0.8618163999999999,0.11083979999999999,-0.3051758,-20.75195,-21.1792,79.00818,2.680664,-86.48987,15.85833,-0.25,-2.116667,1
182200,0.01318359,1.100098,-0.03076172,5.187988,-34.30176,-4.943848,72.70203,2.559814,-93.65845,-39.65,-32.30833,-40.88334,1
182430,-0.08300781,1.23291,0.20166019999999998,6.286621,23.19336,-3.4790039999999998,80.41443,5.910645,-93.2959,15.85,1.283333,-2.1,1
182710,0.03271484,0.7954102,0.06933594,-24.71924,36.68213,14.28223,78.16772,3.729858,-88.22571,14.14167,0.05833333,0.65,1
182930,-0.0234375,1.079102,-0.07519531,-9.033203,24.10889,6.469727,76.43738,4.564819,-80.74951,20.50833,7.491667,-4.416667,1
183140,-0.08398438,0.9433594,0.1635742,17.15088,-28.25928,-22.94922,78.1073,2.526855,-77.146,-34.08333,-32.65833,-46.29167,1
183390,-0.03271484,0.9111328,-0.06103516,-31.18896,-17.94434,5.004883,76.12976,4.5593259999999995,-81.36475,17.65,1.541667,-0.7333333,1
183630,-0.230957,1.2158200000000001,0.2695313,21.66748,28.38135,-15.38086,80.57373,7.069702,-84.62219,15.19167,3.058333,-0.3833333,1
183930,0.1557617,0.8344727,-0.07421875,-11.16943,24.59717,-0.1831055,77.52502,3.175049,-84.19922,-35.19167,-33.51667,-44.3,1
184240,0.17041019999999998,1.012695,0.3701172,21.72852,-18.12744,14.22119,77.81616,0.8459473,-74.63013,15.25833,2.725,0.075,1
184560,-0.04833984,0.8520508,-0.03076172,-23.86475,-9.887695,0.793457,75.20691,4.630737,-77.09656,17.44167,2.641667,0.01666667,1
184840,0.1264648,0.9643554999999999,0.25,32.95898,27.771,-37.10938,79.33777,5.839233,-80.1123,-31.49167,-35.44167,-44.74166,1
185120,0.128418,0.8437500000000001,0.1640625,-35.03418,38.57422,17.02881,80.37598,4.251709,-74.40491,14.991670000000001,-0.35000000000000003,-2.275,1
185360,0.152832,1.257813,0.20166019999999998,1.953125,34.60693,15.80811,76.31104,4.482422,-62.99011,-25.34167,-31.675,-53.025,1
185700,-0.1157227,0.8237304999999999,0.1342773,9.521484,-15.86914,-21.85059,79.28284,3.449707,-60.6665,16.58333,-0.17500000000000002,-0.6833332999999999,1
185940,-0.02441406,1.197266,0.1293945,3.723145,-41.1377,-10.25391,73.98193,3.861694,-67.099,-28.69167,-31.45833,-51.225,1
186180,-0.07763672,1.273926,0.18603519999999998,20.50781,-0.42724609999999996,6.9580079999999995,82.04041,7.750854,-67.40112,16.45,0.8583333999999999,-0.4166667,1
186430,0.1489258,0.8442383,0.02685547,-9.82666,56.27441,-11.2915,79.38171,4.284668,-61.83655,-25.05833,-33.76667,-50.59167,1
186660,-0.42724609999999996,1.186035,0.4804688,-23.98682,62.25586,27.16064,78.20618,4.268188,-53.73413,16.80833,5.733333,1.666667,1
186950,-0.1025391,0.9667969,0.1411133,7.629395,-29.78516,-27.70996,80.46387,2.477417,-56.49719,14.96667,0.8250000000000001,-1.233333,1
187160,-0.07958984,0.8676758,0.0234375,-48.88916,-11.71875,7.995605,77.37122,5.449219,-59.89197,17.31667,1.875,1.558333,1
187380,-0.15820309999999999,0.9438477,0.24902339999999998,21.54541,7.93457,-13.91602,80.42542,7.13562,-64.85229,16.70833,2.566667,0.44166669999999997,1
187631,0.08251953000000001,0.8842772999999999,0.10644529999999999,-25.6958,33.14209,12.39014,81.4032,5.053711,-62.34192,14.825,-0.2083333,-1.8333329999999999,1
187870,0.028808590000000002,1.233887,0.2646484,-6.652832,65.7959,17.08984,78.00293,5.603027,-50.21851,13.75,7.683333,1.725,1
188170,-0.03222656,0.8647461,0.1733398,11.77979,-21.42334,-22.33887,78.79395,4.356079,-50.24597,-19.725,-33.13334,-52.36666,1
188470,-0.02685547,1.094727,-0.01416016,4.516602,-37.17041,-6.9580079999999995,75.15747,4.498901,-56.54663,18.075,2.583333,6.933333,1
188800,0.06494141,0.8955078,0.15820309999999999,3.78418,-28.01514,12.51221,80.91431,6.608276,-59.00208,13.48333,0.5,-0.9833333999999999,1
189080,0.0004882813,1.131348,-0.09863281,-25.45166,30.09033,12.39014,78.23364,4.779053,-53.18481,-20.25833,-33.13334,-51.75,1
189360,-0.09863281,0.9365234,0.1655273,-0.8544921999999999,3.967285,-17.15088,80.17273,2.834473,-45.9668,-18.33333,-33.21667,-51.96667,1
189660,0.2324219,1.123535,0.08251953000000001,-0.12207029999999999,-26.9165,-10.74219,75.31128,4.103394,-51.16333,-20.225,-31.9,-52.86666,1
190000,-0.03417969,0.9584961,0.10693359999999999,-2.624512,-27.83203,14.83154,82.89734,7.926636,-51.19629,-18.34167,-35.30833,-49.20833,1
190230,0.1040039,0.8315429999999999,0.0009765625,-9.58252,31.92139,-5.310059,78.85986,5.982056,-49.99329,20.59167,0.7666666999999999,-2.958333,1
190450,-0.11474609999999999,1.44043,0.4316406,-29.47998,69.45801,34.24072,77.40967,4.229736,-41.87439,16.95833,6.675,3.166667,1
190660,-0.07617188,0.9062500000000001,0.09814453000000001,11.35254,13.24463,-13.30566,80.46936,4.350586,-35.24963,-11.43333,-33.65833,-52.61666,1
190900,-0.078125,0.9501953,0.05566406,-10.92529,-49.43848,2.807617,76.0968,4.32312,-36.34827,19.90833,3.341667,3.791667,1
191170,-0.04296875,0.8364258,0.2514648,50.59814,32.71484,-25.81787,82.72156,8.009033,-37.46887,19.475,1.9916669999999999,0.3916667,1
191390,0.1445313,0.9326171999999999,0.05957031,-30.57861,14.4043,9.460449,83.73779,7.921143,-36.35925,14.78333,-1.008333,-2.741667,1
191610,0.1484375,1.3979489999999999,0.3110352,13.24463,31.06689,27.58789,80.87585,5.064697,-25.99365,15.89167,5.608333,5.425,1
191880,-0.1098633,0.8603516,0.1254883,-4.150391,-4.211426,-13.00049,83.27637,3.004761,-27.46033,-7.841667,-35.15,-50.99166,1
192150,-0.07373047,0.9594727,0.1074219,-34.60693,-44.12842,8.728026999999999,78.21716,3.317871,-31.57471,17.94167,0.8,3.166667,1
192400,-0.05419922,1.081543,0.12451169999999999,-2.380371,-1.220703,15.13672,84.67712,7.426758,-31.76147,-7.366667,-36.36666,-49.375,1
192700,0.02148438,0.9980469,-0.041015630000000004,-13.79395,63.78174,-12.51221,81.52405,5.987549,-21.560670000000002,20.05833,0.9833333999999999,-0.30000000000000004,1
193030,0.07617188,1.031738,0.2983398,12.51221,-18.06641,-0.42724609999999996,81.51306,2.905884,-18.54492,15.775,2.833333,1.341667,1
193300,-0.08984375,0.8720703,0.0004882813,-26.24512,-46.20361,7.324219,79.81018,5.218506,-24.83459,-5.358333,-33.16667,-52.98333,1
193580,0.1196289,1.093262,0.1879883,64.45313,10.19287,-33.08105,79.99695,6.190796,-30.06958,18.25833,4.4,-0.025,1
193830,0.05957031,0.8671875,0.06201172,-17.45605,11.41357,16.72363,81.40869,5.141602,-30.19592,13.29167,0.325,-1.05,1
194130,-0.33300779999999996,1.206055,0.47412109999999996,-18.31055,42.60254,25.75684,79.13452,3.845215,-18.48999,18.275,5.775,0.3833333,1
194500,-0.1030273,0.8774413999999999,0.02783203,-29.11377,-13.18359,2.380371,79.22241,5.987549,-22.19238,-2.241667,-33.45,-52.175,1
194770,0.1455078,1.265625,0.5019530999999999,25.14648,28.80859,-19.89746,77.66785,5.256958,-26.49353,17.69167,5.691667,3.233333,1
195010,0.07763672,0.9145508,0.1030273,-29.96826,10.55908,23.25439,82.1228,5.377808,-23.1427,-2.075,-34.78333,-51.0,1
195250,-0.01904297,0.9589844,0.11474609999999999,-4.516602,43.33496,0.6103516,77.95349,3.850708,-17.06726,22.79167,4.183333,-1.8,1
195490,0.07910156,1.008789,0.30175779999999996,20.1416,-27.16064,-4.760742,79.34326,1.8182369999999999,-9.541626,2.341667,-34.29167,-50.33333,1
195730,0.02978516,0.8984375,0.060546880000000004,7.69043,-11.35254,-25.6958,81.12305,5.564575,-15.0293,2.791667,-34.66667,-50.28333,1
196970,-0.07861328000000001,0.8510742,0.2041016,11.1084,-23.07129,-19.28711,79.20044,4.224243,-5.169067,15.71667,0.5333333,1.1,1
197240,0.03076172,1.09668,0.09619141,-0.06103516,-37.41455,-3.356934,76.44836,3.894653,-10.75562,4.516667,-33.98333,-51.24166,1
197480,-0.11425779999999999,1.083496,0.24902339999999998,1.098633,-9.338379,-3.723145,83.30933,6.690674,-13.14514,15.35,2.566667,-1.383333,1
197720,0.20996089999999998,0.9121094,0.05371094,-1.220703,33.56934,-10.37598,79.01367,3.345337,-14.04602,3.741667,-35.05833,-50.31667,1
197970,-0.4316406,1.13623,0.4609375,-14.64844,51.87988,20.38574,78.48633,3.603516,-6.71814,15.25833,5.608333,0.31666669999999997,1
198240,-0.01367188,0.8793945,0.1538086,-2.502441,-22.2168,-29.66309,79.10156,4.542847,-10.73364,6.091667,-34.4,-50.275,1
198550,-0.06591797,1.109863,0.0859375,8.544922,-45.34912,-5.493164,74.86633,5.795288,-19.7699,18.01667,5.625,8.058333,1
198850,0.04736328,0.9770508,0.1630859,-12.02393,2.01416,13.97705,81.5625,7.289429,-17.276,5.225,-35.51667,-49.825,1
199160,-0.02978516,1.090332,-0.08837891,-6.408691,16.23535,8.911133,77.547,5.092163,-10.59082,20.98333,7.233333,-2.541667,1
199460,-0.03125,0.9394530999999999,0.2036133,7.324219,0.12207029999999999,-9.216309,79.84314,2.790527,-4.647217,8.058333,-36.4,-47.775,1
199800,0.001953125,1.032227,0.08886719,5.737305,-33.5083,-4.333496,77.72827,3.641968,-6.838989,20.60833,7.841667,4.483333,1
200030,-0.03759766,1.026367,0.2851563,26.61133,-5.371094,-21.3623,82.71057,6.481934,-9.558105,16.85,2.491667,-0.075,1
200220,0.1640625,0.8911133,0.08349609,-17.27295,0.6103516,13.91602,82.59521,5.85022,-11.67297,14.63333,-0.4583333,-2.058333,1
200460,0.22167969999999998,1.105957,-0.07666016,0.3051758,9.460449,2.746582,79.49707,4.317627,-4.883423,9.1,-36.34167,-46.61666,1
200700,0.15087889999999998,0.9985352,0.2963867,11.41357,-26.12305,1.7700200000000001,80.06836,1.312866,-3.290405,15.95833,3.908333,1.45,1
200920,0.07568359,0.9082030999999999,0.06689453000000001,4.455566,-17.8833,-25.14648,80.98572,4.487915,-9.18457,14.85833,-0.5750000000000001,-4.858333,1
201130,0.0234375,1.069336,0.1079102,1.220703,-53.10059,-16.78467,75.72327,4.158325,-14.6283,20.36667,8.25,6.866667,1
201350,0.0390625,1.010254,0.175293,1.220703,-0.12207029999999999,18.98193,83.17749,6.047974,-19.42932,4.241667,-37.66667,-48.34167,1
201620,0.06884766,0.8647461,-0.08398438,-18.31055,5.126953,6.103516,78.87085,3.6859129999999998,-16.20483,17.83333,-0.425,0.1666667,1
201860,0.2416992,1.241211,0.15039059999999999,7.568359,38.51318,14.46533,78.51379,3.482666,-12.93091,13.90833,6.533333,1.733333,1
202080,-0.07617188,0.9282227,0.1542969,3.112793,-5.310059,-20.20264,80.46387,3.988037,-13.45276,15.60833,0.3916667,-1.716667,1
202450,-0.005859375,1.153809,0.0078125,12.81738,-35.46143,-7.446289,75.2124,5.454712,-19.22058,16.40833,4.225,8.758333,1
202680,0.1030273,0.9306641,0.1557617,-9.94873,-3.540039,13.48877,81.93054,6.657715,-19.59961,5.641667,-36.29167,-50.18333,1
202960,-0.01269531,1.111816,-0.02001953,-4.211426,15.93018,17.21191,76.95374,5.388794,-10.71716,9.091666,-34.84167,-50.36666,1
203260,-0.0703125,0.8525391,0.3266602,-1.403809,2.258301,2.502441,77.90405,2.911377,-6.542358,15.09167,3.008333,1.533333,1
203510,-0.09863281,0.9335937999999999,0.01025391,-32.16553,-14.89258,8.117676,76.68457,5.278931,-11.95862,19.14167,2.075,1.875,1
203790,-0.1889648,1.172363,0.3554688,12.81738,16.6626,-18.24951,82.51282,7.042236,-16.17737,14.64167,2.525,-0.6583333,1
204160,-0.1020508,1.181641,0.09863281,-20.32471,31.06689,4.821777,78.38745,4.894409,-11.02478,8.891666,-36.625,-49.78333,1
204410,0.02978516,0.8886719,0.43505859999999996,13.30566,-17.51709,10.43701,78.12927,2.741089,-7.338867,16.74167,4.283333,1.591667,1
204670,-0.03515625,0.8666992,0.184082,3.601074,-14.22119,-19.47021,79.52454,3.389282,-10.93689,16.65833,-0.5,-1.883333,1
204870,-0.01464844,1.1533200000000001,0.2587891,17.57813,-19.22607,-7.019043,75.50903,4.515381,-16.57288,6.408333,-36.05,-51.625,1
205130,-0.09033203000000001,1.09375,0.1489258,5.859375,2.13623,16.05225,83.23792,7.185059,-15.38635,15.675,2.616667,-2.716667,1
205360,0.0009765625,0.8779296999999999,0.0034179690000000003,-21.78955,12.93945,12.93945,80.54077,4.196777,-14.08447,15.9,-0.05,-0.2666667,1
205580,0.0009765625,1.131836,0.3583984,6.591797,35.40039,14.16016,78.349,3.433228,-6.218262,9.975,-37.19167,-48.59167,1
205860,-0.08935547,0.9448242,0.1870117,10.68115,-18.12744,-17.21191,80.57922,3.658447,-6.778564,14.96667,1.108333,0.4166667,1
206100,-0.03466797,0.9775391,0.1489258,-9.399414,-35.03418,-5.371094,76.59119,5.229492,-13.27698,6.683333,-35.53333,-52.125,1
206390,-0.06103516,1.146973,0.152832,-4.638672,-22.3999,11.53564,82.771,7.234497,-19.6106,5.758333,-38.80833,-49.39167,1
206680,-0.02832031,0.8745117,-0.02587891,-29.11377,27.9541,17.21191,79.19495,3.977051,-18.90747,16.46667,0.65,0.30000000000000004,1
206920,-0.4213867,1.182617,0.3461914,6.286621,26.85547,12.51221,77.91504,2.966309,-10.24475,5.416667,-36.93333,-51.16667,1
207200,0.05908203,0.8876953,0.1645508,-3.662109,-23.55957,-22.3999,77.72827,4.921875,-17.39685,4.641667,-35.51667,-53.21667,1
207500,0.01660156,0.9692383,0.1362305,-1.037598,-27.09961,-5.249023,73.96545,4.603271,-22.30774,19.775,3.275,3.608333,1
207750,-0.06591797,1.149414,0.1650391,2.563477,7.507324,2.258301,81.89758,7.207031,-22.97791,15.39167,2.775,-1.808333,1
208020,0.1259766,0.8344727,0.03710938,7.93457,31.12793,1.403809,78.2666,3.823242,-15.5072,18.95833,-1.225,0.2666667,1
208350,0.10058589999999999,1.03418,0.3554688,-2.746582,1.586914,4.455566,78.87634,1.911621,-10.76111,15.81667,3.641667,-0.6666667,1
208660,-0.07519531,0.8608397999999999,0.07421875,-32.34863,-37.65869,-2.746582,75.82764,6.817017,-18.13293,17.89167,2.841667,0.24166669999999998,1
208900,0.02978516,1.213867,0.3549805,18.18848,3.173828,-8.972168,74.42139,5.542603,-24.71375,15.09167,4.05,3.791667,1
209110,0.02734375,0.9008788999999999,0.08886719,-25.87891,36.68213,17.39502,82.0459,7.185059,-20.16541,3.55,-35.35833,-42.775,1
209350,-0.01660156,0.9252929999999999,-0.03369141,4.455566,20.93506,10.0708,78.98621,6.251221,-13.48572,20.70833,2.008333,-0.9583332999999999,1
209590,-0.1386719,0.9116211,0.42724609999999996,15.01465,-0.793457,15.93018,78.4314,4.053955,-7.454224,15.43333,3.925,0.3916667,1
209810,0.01855469,0.9140625,0.07177734,-7.080078,-13.91602,-18.00537,80.81543,5.053711,-11.3269,14.19167,-33.56667,-39.5,1
210060,0.08349609,1.016113,0.1303711,0.24414059999999999,-10.62012,-8.239746,76.65161,5.020752,-15.62805,20.59167,1.216667,3.183333,1
210330,-0.1157227,1.187012,0.1552734,-11.53564,2.685547,6.9580079999999995,83.88062,8.052979,-17.18262,18.89167,-31.48333,-45.28333,1
210610,0.05224609,0.8554687999999999,0.05859375,-5.126953,41.80908,-5.737305,77.86011,6.152344,-15.48523,18.025,-29.325,-50.45,1
210910,-0.2265625,1.064453,0.4321289,-14.16016,28.44238,21.3623,76.24512,4.806519,-6.9104,14.025,5.933333,1.033333,1
211150,0.04931641,0.9467772999999999,0.13525389999999998,7.568359,-1.586914,-13.42773,79.33777,5.114136,-10.43701,13.59167,-31.05833,-50.51667,1
211420,-0.1386719,1.141602,0.1791992,12.146,-19.77539,-6.530762,76.20117,5.059204,-14.91943,9.283334,-30.39167,-51.56667,1
211720,-0.1323242,1.180176,0.17871089999999998,5.065918,-12.93945,7.202148,83.0896,7.294922,-16.80359,14.866670000000001,2.441667,-0.30000000000000004,1
211970,0.1118164,0.9252929999999999,0.01611328,-2.563477,33.38623,-8.789063,81.02966,3.614502,-14.55688,18.20833,-1.358333,-0.9083334,1
212250,0.2070313,0.8779296999999999,0.3310547,18.79883,-19.04297,2.746582,79.76074,1.5051269999999999,-8.497925,16.76667,4.041667,-0.4166667,1
213560,-0.06787109,0.9179687999999999,0.3930664,1.159668,3.540039,6.469727,76.43188,4.44397,-8.157349,15.50833,-32.25834,-51.69167,1
213900,-0.0546875,1.071777,-0.06201172,-11.1084,-11.59668,-16.78467,78.50281,7.091675,-14.01306,16.01667,-0.5666667,-3.3,1
214130,0.04541016,1.07373,0.05517578,0.1831055,-46.81396,-5.981445,73.66333,6.399536,-20.4071,17.60833,5.616667,9.4,1
214320,-0.1674805,1.118652,0.2905273,6.9580079999999995,15.625,-10.80322,80.94177,8.959351,-21.14319,15.56667,2.916667,-1.966667,1
214530,0.02392578,0.8554687999999999,0.06787109,-22.82715,3.540039,21.78955,78.16772,5.817261,-21.70349,14.25833,1.083333,-1.308333,1
214740,-0.21777339999999998,1.313965,0.3974609,-21.24023,53.16162,26.79443,75.59143,4.724121,-10.93689,9.725,-33.1,-54.4,1
214980,-0.1337891,1.010254,0.2358398,8.850098,-0.9155272999999999,-12.87842,78.46985,3.251953,-10.42603,15.1,3.233333,1.466667,1
215230,-0.1381836,0.9677734,0.04541016,-23.98682,10.62012,0.1831055,78.8269,5.509644,-11.26099,17.10833,1.283333,-1.908333,1
215450,0.1171875,1.055664,0.2280273,71.16699,7.202148,-33.02002,79.62891,6.646729,-17.276,7.0,-35.53333,-52.81667,1
215690,0.03759766,0.9301758,0.109375,-9.765625,-12.57324,15.19775,84.30359,7.827759,-17.42432,14.71667,1.691667,-4.425,1
215970,0.007324219000000001,1.059082,0.09179688,-17.08984,28.01514,2.502441,77.87109,5.987549,-12.34863,8.383333,-34.01667,-54.36666,1
216250,-0.007324219000000001,0.9941405999999999,0.3076172,20.56885,-35.88867,-11.23047,78.27759,4.026489,-7.097168,7.791667,-34.86666,-53.56667,1
216540,0.005859375,0.9013671999999999,0.11474609999999999,2.807617,-37.71973,-23.92578,78.73901,7.305908,-17.77588,14.991670000000001,-0.5083333,-2.341667,1
216790,0.0034179690000000003,1.223633,0.12207029999999999,24.84131,-24.23096,-14.5874,75.47058,6.223755,-28.88855,-2.258333,-34.775,-55.75,1
217060,0.11669919999999999,0.9658203,0.1538086,-18.61572,21.72852,24.6582,82.71057,7.399292,-26.66382,-1.616667,-36.6,-52.69167,1
217360,0.02929688,0.8105469,0.028808590000000002,-3.845215,46.44775,2.075195,78.87634,4.8614500000000005,-19.61609,18.475,0.225,-1.225,1
217610,0.0859375,0.8115234,0.4057617,29.54102,-25.45166,11.53564,78.74451,2.861938,-10.84351,17.60833,3.908333,0.9500000000000001,1
217880,-0.0625,0.9819336,0.02587891,-18.61572,-2.258301,-6.347656,80.31006000000001,6.146851,-15.53467,1.483333,-34.66667,-50.75,1
218190,0.08398438,1.120605,0.5483397999999999,44.98291,4.333496,-26.85547,77.71729,6.080933,-23.62061,-1.858333,-34.40833,-48.73333,1
218431,0.04833984,1.058594,0.1831055,-3.234863,-30.2124,6.408691,81.24939,7.580566,-26.81763,15.69167,2.275,-2.85,1
218640,0.1298828,0.9643554999999999,-0.017089840000000002,-26.36719,-9.70459,4.333496,77.36023,4.735107,-28.52051,15.93333,1.825,-1.158333,1
218850,-0.3085938,1.078125,0.3862305,2.563477,22.76611,21.05713,76.23413,3.55957,-17.42981,0.8583333999999999,-32.40833,-47.86666,1
219090,-0.1967773,0.9555663999999999,0.24853519999999998,5.249023,-21.66748,-16.29639,78.90381000000001,4.004517,-18.20435,15.49167,2.083333,1.466667,1
219370,-0.1328125,0.9116211,0.01855469,-24.35303,-3.051758,-2.13623,78.12927,6.311646,-21.46179,16.325,1.733333,-1.5833329999999999,1
219600,0.1020508,0.965332,0.38818359999999996,53.10059,23.62061,-18.67676,78.03589,6.948853,-27.94922,4.491667,-34.0,-46.89167,1
219870,-0.03076172,0.8701171999999999,0.1303711,-22.70508,6.408691,18.55469,80.48035,5.740356,-26.521,3.516667,-34.59167,-47.75,1
220160,0.01318359,1.15918,0.041015630000000004,-9.521484,13.73291,10.55908,78.16223,5.251465,-23.23608,22.7,2.683333,-2.325,1
220420,-0.024902340000000002,0.9174804999999999,0.2583008,6.164551,24.84131,1.159668,79.85413,2.757568,-14.07898,14.79167,3.1,1.533333,1
220680,-0.1044922,0.8627929999999999,0.01806641,-18.61572,-9.216309,-3.540039,79.45862,5.916138,-12.03552,10.34167,-35.36666,-46.56667,1
220960,0.020996090000000002,1.2158200000000001,0.3066406,14.03809,-1.708984,-17.94434,77.81067,6.465454,-16.62231,15.46667,4.683333,4.925,1
221230,0.06298828000000001,0.9174804999999999,0.125,-14.5874,-12.57324,14.83154,82.99072,7.756348,-17.47925,15.68333,0.17500000000000002,-2.325,1
221510,0.01318359,1.117188,-0.060546880000000004,-18.12744,25.93994,12.39014,77.36023,6.223755,-15.39734,10.50833,-34.30833,-49.075,1
221790,-0.18212889999999998,1.047363,0.230957,13.24463,-17.02881,-12.146,79.02466,3.735352,-9.398804,10.48333,-35.40833,-47.41667,1
222090,-0.0078125,0.9672852,0.06591797,-19.53125,-46.56982,2.075195,75.79468,5.828247,-15.7489,8.816667,-33.01667,-51.60833,1
222460,-0.2041016,1.077637,0.3364258,20.50781,6.103516,-16.96777,81.4856,8.525391,-21.87927,15.61667,2.45,-0.1,1
222660,-0.015625,0.8896484,0.1074219,-27.771,21.30127,19.104,81.44714,5.548096,-22.66479,15.08333,-0.3833333,-1.908333,1
222880,-0.0390625,1.003418,0.004882813000000001,-7.629395,22.70508,2.258301,78.28857,4.976807,-19.27551,21.175,1.691667,-0.8583333999999999,1
223090,0.1855469,0.9438477,0.27880859999999996,16.47949,2.990723,-1.8310549999999999,79.33777,1.30188,-14.31519,6.05,-34.89167,-50.26667,1
223330,-0.004394531,0.9252929999999999,0.0625,6.774902,0.1831055,-23.31543,80.22217,4.8614500000000005,-14.9469,14.59167,0.8583333999999999,-3.916667,1
223600,0.01074219,1.060059,0.05761719,-4.638672,-38.51318,-10.43701,76.32751,4.894409,-18.50647,20.00833,5.75,3.45,1
223820,-0.020996090000000002,0.965332,0.2890625,31.61621,1.8310549999999999,-13.24463,81.29883,7.503662,-22.46155,18.24167,3.925,0.6666667,1
224040,0.1035156,0.9008788999999999,0.03369141,-20.69092,-10.00977,11.84082,78.70605,4.608765,-26.85059,14.53333,1.591667,0.0,1
224310,-0.2358398,1.134766,0.41162109999999996,-5.065918,57.37305,25.81787,77.0636,3.982544,-16.66077,5.65,-33.35833,-50.56667,1
224580,-0.1489258,0.9628905999999999,0.21289059999999999,7.080078,-30.70068,-19.22607,80.29358,2.856445,-18.53394,15.125,2.8083329999999997,1.166667,1
224830,0.04833984,1.012207,0.03564453,-0.5493163999999999,-35.5835,5.67627,77.146,4.312134,-27.82288,0.9666665999999999,-32.51667,-53.51667,1
225130,-0.08154297,0.9555663999999999,0.25488279999999996,14.34326,-19.04297,-14.28223,82.15027,7.382813,-31.30005,1.683333,-34.94167,-51.09167,1
225400,-0.03662109,0.8911133,0.03808594,-31.12793,15.44189,18.43262,80.77698,5.306396,-30.55298,13.43333,0.5333333,-1.358333,1
225650,0.0034179690000000003,1.322266,0.2597656,-13.12256,74.27979,17.7002,78.42041,4.361572,-18.82507,6.475,-33.74166,-51.675,1
225950,-0.06591797,0.9155272999999999,0.10644529999999999,11.04736,8.056641,-16.47949,81.33179,4.987793,-13.1012,16.55,-0.075,-4.066667,1
226260,-0.12207029999999999,1.094238,0.01855469,-6.896973,-23.4375,-7.446289,77.57996,7.108154,-13.99109,18.46667,5.966667,7.916667,1
226560,0.01269531,0.9667969,0.16699219999999998,-4.394531,-4.02832,17.63916,83.53455,8.981323,-14.09546,15.55,1.041667,-2.533333,1
226930,0.23339839999999998,1.233887,0.1850586,-7.019043,44.55566,16.8457,78.53027,5.50415,-7.910156,12.45833,-34.89167,-48.19167,1
227190,-0.06494141,0.9536133,0.26220699999999997,7.080078,-16.11328,-5.7983400000000005,80.22217,2.922363,-5.245972,15.85,2.5,0.6166667,1
227440,-0.07470703000000001,0.8920897999999999,-0.01025391,-25.14648,-32.10449,-1.098633,77.9425,6.663208,-12.89246,10.275,-34.34167,-51.39167,1
227680,0.04589844,1.153809,0.2827148,17.33398,-1.159668,-11.1084,75.32776,6.405029,-19.44031,15.9,4.266667,4.641667,1
227930,-0.137207,1.094238,0.2001953,11.77979,0.6103516,15.31982,83.01819,8.492431999999999,-13.63953,15.61667,2.45,-2.016667,1
228130,0.011230470000000001,0.8354492,0.02832031,-3.356934,40.83252,-3.723145,79.43115,5.72937,-8.624268,13.1,-36.4,-48.3,1
228380,-0.65625,2.730957,0.9223633,-22.3999,76.0498,26.48926,78.16772,5.075684,0.7305908,15.19167,7.025,4.583333,1
228660,-0.01660156,0.9321288999999999,0.1411133,2.441406,-11.96289,-25.02441,82.40295,5.795288,3.795776,18.225,-37.48333,-42.76667,1
229910,0.1176758,0.9277344,0.2924805,5.493164,4.455566,2.13623,81.33728,3.224487,8.695679,15.51667,3.908333,0.01666667,1
230160,-0.09082031,0.8671875,0.004394531,-28.86963,-13.12256,5.859375,79.94751,6.168823,7.212524,17.09167,2.225,-0.4666667,1
230460,-0.05712891,0.9477538999999999,0.24902339999999998,39.67285,10.00977,-12.3291,84.56177,6.932373,-0.19226069999999998,18.29167,-39.06667,-41.4,1
230770,0.04833984,0.9135742,0.02050781,-21.72852,11.59668,9.094238,83.2489,5.317383,1.554565,17.64167,-38.76667,-42.18333,1
231030,-0.02685547,1.01416,-0.03222656,-11.59668,25.63477,15.99121,80.98022,5.196533,8.563843,20.775,6.05,-2.775,1
231280,-0.07226563,0.9746094,0.1499023,9.521484,13.5498,-8.239746,83.05115,2.807007,16.02905,15.24167,1.391667,1.291667,1
231591,0.03613281,0.9970703,0.07958984,-12.02393,-36.19385,-10.49805,79.83765,3.916626,14.28772,19.36667,2.691667,3.05,1
231890,-0.02734375,1.044922,0.184082,4.089355,-15.31982,9.033203,85.27039,7.613525,12.38708,21.8,-39.40833,-35.55833,1
232190,0.03076172,0.8637695,0.06494141,4.516602,39.12354,-6.9580079999999995,80.90332,4.855957,17.51221,22.24167,-39.56667,-34.675,1
232500,0.07568359,0.9179687999999999,0.3925781,18.79883,-16.96777,11.59668,81.01868,2.521362,25.56519,17.49167,2.833333,0.9833333999999999,1
232740,-0.03564453,0.8930663999999999,0.1464844,5.187988,-13.00049,-17.33398,83.32581,3.24646,25.03784,16.51667,0.2166667,-3.383333,1
232950,0.04589844,1.046875,0.09619141,5.371094,-41.56494,-9.521484,79.00818,4.180298,18.17139,21.10833,-39.81667,-35.925,1
233191,-0.1455078,1.154785,0.2006836,12.93945,1.708984,-7.995605,86.59424,7.454224,16.64978,16.04167,1.9000000000000001,-1.1,1
233460,0.04443359,0.9047852,0.05029297,-21.24023,19.34814,13.24463,85.22095,4.515381,17.00134,14.525,-0.9083334,-2.4,1
233680,0.015136720000000001,1.103516,0.04150391,-18.00537,26.79443,5.249023,81.72729,4.405518,23.40088,21.43333,3.15,-1.216667,1
233900,0.015625,0.9609375,0.253418,11.65771,-12.146,1.220703,81.83167,0.7800292999999999,28.36121,20.25833,-43.73333,-28.58333,1
234140,0.04736328,0.9970703,-0.001464844,-1.7700200000000001,-11.96289,-19.28711,82.82593,4.262695,22.87903,15.38333,-0.8666667,-4.625,1
234390,0.1884766,1.146484,0.5961913999999999,63.59863,-6.530762,-24.35303,80.10681,4.586792,13.40332,17.24167,5.125,2.35,1
234690,0.10498049999999999,0.8808594,0.1137695,-30.45654,13.24463,22.15576,83.83118,5.41626,13.16162,21.00833,-39.83333,-34.68333,1
234990,0.1298828,1.214844,0.2587891,-9.82666,40.1001,16.60156,80.54077,3.938599,19.35242,21.575,-40.60833,-32.75,1
235260,0.005371094000000001,0.8847655999999999,0.23339839999999998,-2.197266,22.76611,-2.01416,81.60095,1.395264,23.45581,15.38333,3.358333,1.525,1
235500,-0.09326172,0.9282227,0.002441406,-21.72852,-24.41406,-0.6713867,81.31531,4.449463,21.31348,21.35,-39.69167,-33.93333,1
235810,0.0625,0.9296875,0.234375,34.11865,17.02881,-23.4375,83.36975,5.608521,11.10168,19.86667,2.791667,2.225,1
236120,-0.004394531,0.9155272999999999,0.01953125,-14.64844,12.81738,7.995605,83.55103,3.7683109999999997,17.58911,21.14167,-40.225,-33.45833,1
236420,-0.14306639999999998,1.236816,0.3081055,-23.13232,65.12451,22.82715,80.4364,3.416748,27.01538,21.4,-40.81667,-31.16667,1
236730,-0.0234375,0.8911133,0.17431639999999998,9.70459,-18.31055,-23.80371,81.52405,2.6696779999999998,28.2019,17.01667,-0.03333333,-1.508333,1
236960,-0.026367190000000002,0.871582,-0.01367188,-13.67188,-42.3584,8.361816,78.89832,3.7683109999999997,25.28503,17.39167,0.6666667,-0.15,1
237190,-0.246582,1.072266,0.20507809999999999,19.59229,17.15088,-18.18848,85.41321,6.844482,19.3689,15.36667,-38.41667,-34.08333,1
237420,0.04248047,0.8920897999999999,0.06884766,-25.02441,-0.3662109,17.02881,85.10559,5.009766,16.76514,14.68333,-0.6833332999999999,-2.625,1
237700,0.04394531,1.089844,0.015625,-16.35742,43.94531,6.469727,82.02942,4.213257,21.5332,21.56667,3.441667,-1.108333,1
237900,-0.048828130000000004,0.9272461,0.3310547,4.638672,-18.61572,16.41846,80.39246,2.158813,28.6084,16.13333,3.908333,0.525,1
238130,-0.0034179690000000003,0.965332,0.03222656,5.859375,-1.7700200000000001,-18.79883,82.04041,3.598022,25.98816,12.61667,-39.09167,-27.95833,1
238380,0.04736328,0.9868163999999999,0.1025391,-7.202148,-42.96875,-12.39014,77.8656,3.4002689999999998,21.18713,19.16667,6.583333,4.633333,1
238620,-0.03076172,1.1533200000000001,0.15136719999999998,2.197266,-34.42383,0.12207029999999999,84.14429,6.273193,15.90271,16.2,1.716667,-2.075,1
238920,0.09521484000000001,0.8999022999999999,-0.01757813,1.403809,30.09033,-6.04248,79.5575,4.130859,13.18359,15.3,-36.70833,-30.75833,1
239230,0.1123047,0.9609375,0.3613281,16.72363,13.5498,7.568359,81.57349,-0.46691889999999997,20.31921,14.98333,-41.10833,-26.525,1
239500,0.05957031,0.9033203,0.05224609,-4.516602,2.319336,-21.30127,83.17749,1.933594,19.79187,14.25,0.8833333,-4.558333,1
239740,-0.09716797,1.117676,0.109375,6.225586,-21.48438,-13.3667,77.86011,3.010254,14.89746,19.31667,-37.30833,-30.93333,1
240040,0.1293945,0.9477538999999999,0.1074219,-1.159668,-10.19287,13.00049,84.56726,4.795532,13.3374,15.36667,0.25,-2.591667,1
240350,-0.08398438,1.0698239999999999,-0.006347656,-15.31982,28.9917,16.41846,79.59595,4.042969,21.22559,22.775,-37.45,-27.20833,1
240670,-0.08349609,1.027344,0.1337891,15.07568,-7.751465,-10.37598,81.97998,0.9558105,26.559450000000002,15.40833,2.458333,0.01666667,1
240990,0.009277344,0.9326171999999999,0.1342773,-19.71436,-34.42383,-1.220703,78.13477,2.460938,22.23083,19.08333,2.725,1.675,1
241300,-0.07324219,1.140137,0.1772461,7.93457,2.075195,-4.02832,85.07263,6.432495,18.12744,16.10833,2.008333,-1.641667,1
241540,0.07568359,0.7749022999999999,0.006347656,-0.3662109,41.38184,-10.55908,81.4032,4.070435,23.68652,21.25833,-34.85833,-29.88333,1
241780,-0.03173828,1.202148,0.2304688,-20.32471,70.92285,11.77979,79.89258,4.411011,29.81689,12.866670000000001,8.291667,2.333333,1
242020,-0.05908203,0.9936522999999999,0.2314453,6.103516,-17.15088,-8.850098,80.54626,2.614746,28.17444,15.88333,3.108333,1.208333,1
242260,0.01464844,0.8730469,0.02539063,-22.09473,-53.58887,9.887695,77.24487,4.729614,16.14441,17.23333,1.016667,0.31666669999999997,1
242540,0.15869139999999998,1.083496,0.48925779999999996,52.91748,-5.371094,-24.84131,78.44788,4.54834,8.223267,17.275,4.666667,2.508333,1
242760,0.01464844,0.8999022999999999,0.03369141,-20.1416,10.62012,15.625,83.10608,4.196777,8.344116,19.06667,-35.4,-31.575,1
243040,0.022460940000000002,1.12207,0.060546880000000004,-11.77979,34.05762,7.751465,79.43115,4.405518,13.74939,22.69167,5.675,-1.358333,1
243270,-0.03613281,0.9975586,0.2280273,12.87842,14.4043,0.9155272999999999,81.06262,1.307373,21.75293,15.075,2.208333,2.133333,1
243580,-0.1132813,0.8540038999999999,-0.01074219,-14.22119,-40.34424,9.887695,79.66187,4.004517,22.71973,22.55,-35.175,-28.51667,1
243850,-0.1079102,0.9702147999999999,0.2885742,20.1416,16.05225,-21.11816,82.86987,5.592041,13.96362,24.51667,-33.55833,-28.43333,1
244150,0.07275391,0.949707,0.08105469,-27.28271,28.50342,17.39502,84.33105,4.42749,13.9801,15.025,-0.24166669999999998,-2.833333,1
244390,0.1835938,1.178711,0.03369141,-0.12207029999999999,39.85596,7.507324,80.00793,3.647461,22.54944,17.05833,7.091667,0.2666667,1
244670,-0.1298828,0.9418945,0.20605469999999998,7.080078,6.225586,-11.96289,82.18323,3.103638,26.44958,26.91667,-33.875,-25.25,1
244980,-0.01220703,1.044922,0.11865229999999999,-7.69043,-51.87988,-5.7983400000000005,78.55225,4.493408,20.01709,25.83333,-29.975,-34.8,1
245280,-0.02148438,1.14502,0.1030273,19.83643,-18.00537,19.40918,85.78674,7.064209,13.5022,16.35,1.533333,-2.75,1
245650,0.03515625,1.011719,-0.008300781,-10.86426,24.41406,-6.164551,79.90356,4.130859,22.44507,20.68333,-27.19167,-31.20833,1
246860,0.01025391,0.8789062999999999,0.1074219,-19.104,4.638672,14.64844,81.22742,4.251709,10.85999,14.45,0.2166667,-1.516667,1
247050,0.07519531,1.265137,0.2260742,-8.300781,76.41602,24.90234,78.89282,3.696899,19.374390000000002,21.44167,-32.98333,-23.175,1
247290,0.01464844,0.9482421999999999,0.2426758,14.89258,14.52637,-0.9155272999999999,80.09583,1.439209,24.12598,14.95833,3.316667,1.983333,1
247560,-0.007324219000000001,1.006836,0.0034179690000000003,4.577637,-7.8125,-14.28223,81.97449,4.564819,21.16516,13.70833,0.5083333,-3.15,1
247770,0.07519531,1.050293,0.12744139999999998,-5.67627,-32.10449,-10.80322,77.91504,3.57605,16.1499,19.9,4.525,3.375,1
247990,0.02978516,1.087402,0.06787109,14.09912,-8.422852,17.45605,86.11084,5.537109,11.46423,30.55833,-36.31667,-25.475,1
248240,0.07666016,0.9711913999999999,-0.015625,-26.06201,23.92578,8.728026999999999,83.05115,3.010254,15.67749,15.825,0.3416667,-3.266667,1
248480,-0.3271484,1.321777,0.4291992,-7.93457,45.89844,8.422852,78.45886,4.163818,27.68555,28.70833,-41.55833,-22.05,1
248720,-0.09619141,1.038086,0.14306639999999998,22.2168,-37.65869,-20.87402,82.05139,1.323853,26.867070000000002,15.56667,2.55,-0.9583332999999999,1
249000,0.056640630000000004,0.9345703,0.08691406,-9.338379,-42.90771,0.6713867,78.1842,5.723877,13.43628,29.4,-40.175,-30.88333,1
249310,-0.1420898,1.023926,0.2880859,-1.220703,-4.150391,-14.77051,82.22717,7.827759,5.982056,15.58333,3.258333,-1.358333,1
249600,0.1176758,0.8886719,-0.006835938000000001,-8.422852,15.38086,4.272461,79.77173,3.433228,7.064209,30.26667,-44.0,-34.05,1
249910,-0.04785156,0.8193359,0.3618164,25.26855,-31.37207,29.11377,78.57971,2.532349,20.95642,15.29167,4.016667,0.36666669999999996,1
250210,0.006347656,0.9003905999999999,0.08398438,0.8544921999999999,7.019043,-18.31055,81.8866,4.608765,21.63208,32.25834,-44.54167,-25.225,1
250520,-0.05371094,1.123047,0.152832,25.45166,-43.88428,-13.79395,78.11829,4.53186,13.93066,32.24166,-43.96667,-32.6,1
250800,0.1650391,0.9355469,0.1333008,-24.78027,26.79443,16.47949,84.89685,5.218506,14.05151,32.95833,-44.8,-29.83333,1
251130,0.1074219,1.013672,-0.0859375,1.525879,14.64844,2.929688,80.8374,4.383545,22.7417,18.88333,4.816667,0.0,1
251390,0.06640625,0.7983397999999999,0.4003906,25.5127,-55.48096,20.20264,81.61194,1.757813,28.49854,16.96667,3.008333,1.933333,1
251580,0.0009765625,0.8852538999999999,0.12744139999999998,6.835938,-46.26465,-27.34375,84.78699,3.90564,21.7804,16.675,-0.6583333,-1.675,1
