Timestamp,AccX,AccY,AccZ,GyroX,GyroY,GyroZ,AngX,AngY,AngZ,MagX,MagY,MagZ,Tag
0,0.007324219000000001,0.8701171999999999,-0.4770508,0.7324219,-1.8310549999999999,2.441406,119.5697,10.66223,-118.1854,14.93333,-8.291667,0.275,1
523,-0.008300781,0.8637695,-0.5039063,1.8310549999999999,1.098633,0.0,120.3223,9.673462,-117.0923,14.79167,-8.633333,0.225,1
723,0.007324219000000001,0.875,-0.49804689999999996,0.9765625,-0.6713867,-1.159668,120.5914,9.415283,-117.2186,14.7,-8.558333,-0.008333334000000001,1
973,0.01171875,0.8720703,-0.5043945,-0.24414059999999999,-0.4882813,-0.7324219,120.5969,9.431763,-117.2681,14.89167,-8.633333,-0.05833333,1
1183,0.01171875,0.8720703,-0.5043945,-0.24414059999999999,-0.4882813,-0.7324219,120.5969,9.431763,-117.2681,14.78333,-8.375,-0.05,1
1383,0.01171875,0.8720703,-0.5043945,-0.24414059999999999,-0.4882813,-0.7324219,120.5969,9.431763,-117.2681,14.84167,-8.433333,0.125,1
2593,0.011230470000000001,0.8657227,-0.49804689999999996,1.098633,-0.5493163999999999,-3.356934,120.3278,9.871216,-118.3118,14.741670000000001,-8.541667,0.1,1
2800,-0.03271484,0.8618163999999999,-0.5058594,1.220703,-1.464844,1.525879,120.7178,9.942627,-117.6416,14.75,-8.683333,-0.1416667,1
3063,0.02197266,0.8808594,-0.4858398,-8.972168,-3.173828,-0.4882813,119.3445,10.05798,-119.3829,54.575,-79.89167,68.29166,1
3363,0.0,0.8847655999999999,-0.45898439999999996,-10.37598,-0.5493163999999999,-3.90625,117.3065,10.34912,-119.5697,15.26667,-7.5,-1.216667,1
3613,-0.024902340000000002,0.9067383,-0.4008789,-9.58252,-3.662109,-2.075195,114.494,11.22253,-119.8499,15.64167,-6.833333,-1.166667,1
3913,-0.03662109,0.9375,-0.36572269999999996,-7.93457,-6.469727,1.342773,111.7035,11.27197,-121.5308,15.98333,-5.983333,-1.241667,1
4213,-0.03076172,0.9448242,-0.3203125,-6.652832,-2.807617,-1.037598,109.2535,10.9259,-122.6514,16.24167,-5.308333,-0.9833333999999999,1
4523,-0.03417969,0.9458008,-0.28613279999999996,-4.089355,0.42724609999999996,-3.112793,107.3639,10.95337,-123.0414,16.175,-4.708333,-0.2166667,1
4833,-0.056640630000000004,0.9458008,-0.29492189999999996,0.42724609999999996,0.6713867,1.586914,106.9849,10.45898,-122.9425,16.25833,-4.825,0.3416667,1
5113,-0.005859375,0.9506836,-0.2880859,4.943848,-2.563477,0.793457,107.8088,9.431763,-124.4696,56.63334,-85.98333,59.31667,1
5383,-0.01855469,0.9501953,-0.31835939999999996,6.469727,3.662109,-0.5493163999999999,109.1656,8.860474,-124.3872,16.175,-5.733333,0.7166667,1
5673,-0.011230470000000001,0.9370117,-0.347168,1.8310549999999999,-0.24414059999999999,-0.42724609999999996,110.3302,8.063965,-123.8379,16.11667,-5.883333,0.0,1
5863,-0.009765625,0.9384766,-0.34375000000000006,-2.13623,-1.281738,0.06103516,110.1929,7.767334,-124.118,15.95833,-5.8,-0.225,1
6053,-0.0078125,0.9433594,-0.3286133,-0.9155272999999999,-3.051758,-0.6713867,109.8248,7.476196,-124.6234,16.03333,-5.583333,-0.05,1
6263,-0.01269531,0.9394530999999999,-0.33349609999999996,0.6103516,-0.3051758,-1.403809,109.7534,7.3718259999999995,-124.7772,16.08333,-5.733333,0.15,1
6473,-0.01611328,0.9394530999999999,-0.3349609,1.098633,-0.793457,-1.098633,109.9347,7.245483,-124.8157,16.06667,-5.758333,0.06666667,1
6693,-0.01757813,0.9394530999999999,-0.3393555,0.9765625,-0.7324219,-1.342773,110.1984,7.146606,-124.942,56.21667,-85.15833,60.63334,1
6943,-0.01953125,0.9360352,-0.3442383,0.4882813,-0.6713867,-1.281738,110.2917,7.075195,-124.9475,16.05,-5.866667,0.01666667,1
7213,-0.01757813,0.9365234,-0.34033199999999997,0.4882813,-0.5493163999999999,-0.42724609999999996,110.3357,6.992798,-125.0739,16.03333,-5.833333,0.1166667,1
7423,-0.01953125,0.9379883,-0.3457031,0.24414059999999999,-1.159668,-0.7324219,110.451,6.80603,-125.0903,16.025,-5.908333,-0.01666667,1
7643,-0.01806641,0.9360352,-0.3422852,-1.098633,0.12207029999999999,-0.6713867,110.2698,6.542358,-125.1782,16.08333,-5.775,-0.08333334,1
7924,-0.01660156,0.9389647999999999,-0.3364258,0.1831055,-0.4882813,-0.6713867,110.105,6.28418,-125.1947,56.21667,-85.325,60.76667,1
8183,-0.01855469,0.9360352,-0.3388672,0.9155272999999999,-0.3051758,-1.037598,110.2039,6.17981,-125.2441,16.075,-5.858333,0.1416667,1
8433,-0.015625,0.9355469,-0.3432617,0.5493163999999999,-0.9155272999999999,-1.281738,110.3796,6.047974,-125.2716,56.19167,-85.06667,60.80833,1
8733,-0.01757813,0.9394530999999999,-0.3432617,0.1831055,-0.6713867,-1.220703,110.4401,5.993042,-125.3705,16.025,-5.85,0.01666667,1
9073,-0.01855469,0.934082,-0.3398438,0.3051758,-0.7324219,-1.037598,110.451,5.932617,-125.4584,16.04167,-5.883333,0.05833333,1
9343,-0.02001953,0.9350586,-0.3457031,0.6103516,-0.24414059999999999,-1.037598,110.5609,5.817261,-125.4858,16.05,-5.875,0.05,1
9724,-0.0234375,0.934082,-0.3461914,0.0,-0.4882813,-0.9765625,110.6213,5.679932,-125.5682,56.325,-84.94167,60.93333,1
9973,-0.02734375,0.9375,-0.34179689999999996,-0.5493163999999999,-1.89209,-0.8544921999999999,110.6268,5.668945,-125.7111,16.0,-5.833333,-0.08333334,1
10223,-0.030273440000000002,0.9321288999999999,-0.34814449999999997,0.3051758,-2.319336,-0.42724609999999996,110.4401,5.586548,-126.0352,16.05833,-5.833333,-0.04166667,1
10443,-0.015625,0.9384766,-0.3432617,0.3662109,1.403809,-2.197266,110.451,5.9545900000000005,-126.5186,56.75834,-84.91666,60.36666,1
10673,-0.041015630000000004,0.9370117,-0.3442383,0.5493163999999999,1.159668,-0.6713867,110.5389,5.83374,-125.9583,15.95,-5.841667,0.1666667,1
10923,-0.0234375,0.9375,-0.3505859,0.3662109,-0.24414059999999999,-1.159668,110.7257,5.50415,-126.1725,56.625,-84.95834,60.84167,1
11163,-0.01953125,0.9389647999999999,-0.34912109999999996,-0.3662109,-0.9765625,-0.6713867,110.7202,5.542603,-126.2604,15.925,-5.9,-0.06666667,1
11443,-0.024902340000000002,0.9414062999999999,-0.3447266,-0.5493163999999999,-1.159668,-0.9765625,110.6323,5.493164,-126.3593,16.01667,-5.916667,0.025,1
11653,-0.022460940000000002,0.9350586,-0.3461914,0.5493163999999999,-1.098633,-1.281738,110.6268,5.537109,-126.4581,15.991670000000001,-5.883333,0.05,1
11863,-0.02783203,0.9375,-0.347168,-0.06103516,-0.24414059999999999,-0.793457,110.6927,5.482178,-126.4526,56.73333,-84.925,60.725,1
12113,-0.024902340000000002,0.9331054999999999,-0.34375000000000006,0.6103516,0.24414059999999999,-0.5493163999999999,110.7037,5.388794,-126.4636,15.975,-5.925,0.05833333,1
12353,-0.01953125,0.9428711,-0.34863279999999996,0.24414059999999999,-0.3662109,-0.6103516,110.8301,5.278931,-126.5076,15.95833,-5.966667,0.06666667,1
12663,-0.02392578,0.9389647999999999,-0.3476563,0.06103516,-0.8544921999999999,-1.098633,110.874,5.130615,-126.4911,56.59167,-84.90833,60.68333,1
12963,-0.02539063,0.9394530999999999,-0.3510742,0.12207029999999999,-0.42724609999999996,-0.7324219,110.9015,5.141602,-126.5295,15.866670000000001,-5.941667,0.03333333,1
13293,-0.02001953,0.9365234,-0.3525391,-0.3051758,-1.7700200000000001,-1.403809,110.907,5.174561,-126.6449,15.96667,-5.908333,0.01666667,1
13573,-0.02050781,0.9355469,-0.347168,0.3051758,-0.24414059999999999,-0.5493163999999999,110.896,5.119629,-126.6724,56.625,-84.93333,60.975,1
13843,-0.02392578,0.9355469,-0.3525391,0.12207029999999999,-1.098633,-0.6713867,110.929,5.092163,-126.7218,16.00833,-5.925,0.05833333,1
14133,-0.02294922,0.9335937999999999,-0.3544922,-0.24414059999999999,-0.24414059999999999,-1.220703,110.9015,5.042725,-126.7273,15.991670000000001,-5.9,0.0,1
14343,-0.02539063,0.9384766,-0.3510742,0.42724609999999996,-0.42724609999999996,-1.037598,110.8466,5.042725,-126.8152,56.73333,-84.94167,60.85833,1
14583,-0.022460940000000002,0.9394530999999999,-0.34960939999999996,0.1831055,-0.5493163999999999,-0.9765625,110.896,5.097656,-126.8591,16.04167,-5.983333,-0.075,1
14843,-0.0234375,0.9335937999999999,-0.3554688,0.793457,-1.281738,-0.793457,110.885,5.097656,-126.9141,16.01667,-5.925,0.03333333,1
15053,-0.028808590000000002,0.9370117,-0.3461914,-0.6713867,-1.7700200000000001,-1.037598,110.863,5.081177,-126.9635,15.90833,-5.975,0.1166667,1
15273,-0.020996090000000002,0.9345703,-0.3505859,1.098633,0.1831055,-0.4882813,111.0278,4.9823,-126.9965,56.71667,-84.78333,60.94167,1
15523,-0.02685547,0.9296875,-0.3515625,1.6479489999999999,-1.159668,-1.220703,111.1487,4.9273679999999995,-126.936,15.9,-5.883333,0.24166669999999998,1
15763,-0.006347656,0.9140625,-0.3686523,-1.159668,-0.6103516,-4.089355,111.2476,5.317383,-126.936,56.8,-84.4,60.98333,1
16013,-0.01416016,0.9462891,-0.3598633,-3.845215,6.9580079999999995,1.6479489999999999,111.6156,5.08667,-126.2439,15.45833,-6.241667,0.25,1
16293,0.004882813000000001,0.9165038999999999,-0.34863279999999996,0.6103516,-2.197266,2.868652,111.4178,4.169312,-127.2876,56.13334,-85.16666,61.29167,1
16593,-0.06347656,0.9423828,-0.3442383,5.126953,2.197266,-0.6103516,111.8243,4.432983,-126.8701,15.991670000000001,-6.533333,-0.3083333,1
16893,0.008789063,0.9375,-0.3852539,-3.662109,-3.356934,-2.502441,111.8353,4.817505,-127.6666,56.66667,-84.55833,61.25834,1
17193,-0.04150391,0.9287109,-0.34375000000000006,-0.6713867,-0.6103516,-2.197266,111.3849,5.004272,-127.2766,56.83333,-84.48333,61.025,1
17463,-0.03271484,0.9316405999999999,-0.3388672,-3.234863,2.502441,-1.89209,110.7806,5.31189,-127.0844,15.991670000000001,-5.841667,-0.15833329999999998,1
18883,-0.02587891,0.9301758,-0.3696289,4.089355,2.441406,-0.9155272999999999,112.2858,5.432739,-127.8534,15.83333,-6.458333,0.4166667,1
19123,-0.03515625,0.9321288999999999,-0.3935547,0.7324219,-0.6713867,0.5493163999999999,113.0164,5.031738,-127.2601,56.65833,-83.64167,62.31667,1
19463,-0.02392578,0.9272461,-0.38037109999999996,-4.455566,-0.12207029999999999,-0.6713867,112.2198,4.855957,-127.381,15.85833,-5.941667,-0.7416667,1
19663,-0.03173828,0.9379883,-0.3535156,-3.723145,-0.3051758,-0.3662109,111.3739,4.779053,-127.2821,15.71667,-6.025,-0.08333334,1
19883,-0.02685547,0.9296875,-0.34033199999999997,2.868652,-0.3051758,-2.380371,111.3849,4.954834,-127.4634,15.96667,-6.133333,0.7666666999999999,1
20093,-0.02197266,0.9238280999999999,-0.3583984,5.065918,-1.342773,-5.065918,112.4231,5.586548,-127.4908,15.88333,-6.583333,0.2583333,1
20313,-0.03369141,0.9204102,-0.37939449999999997,1.525879,-3.173828,-0.1831055,113.0933,5.438232,-127.3206,56.96667,-83.41666,62.375,1
20543,-0.03125,0.9248046999999999,-0.37255859999999996,0.7324219,-0.12207029999999999,-0.8544921999999999,112.9395,5.553589,-127.5293,15.375,-7.025,-0.03333333,1
20793,-0.006347656,0.9243163999999999,-0.3666992,-0.8544921999999999,1.586914,-0.3662109,112.3627,5.372314,-127.6501,56.94167,-83.85833,62.15,1
21043,-0.01855469,0.9355469,-0.375,6.9580079999999995,2.563477,-1.8310549999999999,113.0548,5.141602,-127.4963,15.675,-6.691667,0.2083333,1
21313,-0.01416016,0.9101562999999999,-0.4140625,0.3662109,-1.159668,-0.4882813,113.6646,5.245972,-127.8918,15.53333,-6.025,0.6000000000000001,1
21543,-0.017089840000000002,0.9194336,-0.3549805,-6.9580079999999995,1.464844,-1.525879,113.2031,5.39978,-127.9852,56.76667,-83.75833,62.175,1
21813,-0.026367190000000002,0.9316405999999999,-0.3696289,1.220703,-1.281738,-1.464844,112.5934,5.394287,-128.1335,56.75,-83.89167,62.03333,1
22103,-0.02441406,0.9160155999999999,-0.3779297,0.5493163999999999,-0.3662109,-0.9765625,112.4561,5.432739,-128.2983,15.88333,-6.258333,0.03333333,1
22343,-0.0234375,0.9287109,-0.378418,2.13623,-1.342773,-0.7324219,112.8186,5.344849,-128.3093,15.70833,-6.566667,0.1333333,1
22623,-0.028808590000000002,0.9267578,-0.38916019999999996,0.6713867,-0.06103516,-1.159668,113.0493,5.31189,-128.2764,56.55,-83.81667,62.225,1
22903,-0.024902340000000002,0.9213867,-0.3974609,0.1831055,-0.3051758,-1.159668,113.1482,5.289917,-128.3313,15.76667,-6.6,0.06666667,1
23173,-0.02587891,0.9160155999999999,-0.38818359999999996,0.9765625,-1.037598,-0.793457,113.2196,5.234985,-128.3862,15.7,-6.566667,0.09166667,1
23443,-0.024902340000000002,0.918457,-0.3935547,0.793457,-0.6713867,-1.098633,113.4064,5.234985,-128.4631,56.75,-83.60833,62.29167,1
23753,-0.02685547,0.9145508,-0.390625,0.24414059999999999,-0.7324219,-1.098633,113.5272,5.344849,-128.5895,15.725,-6.7,0.075,1
23993,-0.028808590000000002,0.9213867,-0.394043,-0.24414059999999999,-0.8544921999999999,-1.281738,113.5876,5.443726,-128.6005,15.7,-6.641667,-0.09166667,1
24203,-0.03222656,0.9213867,-0.38867189999999996,-0.3662109,0.1831055,-0.6713867,113.4668,5.559082,-128.6279,15.775,-6.691667,-0.24166669999999998,1
24423,-0.02197266,0.9213867,-0.3862305,-1.525879,-2.502441,-0.9765625,112.8845,5.690918,-128.5345,56.85833,-83.68333,61.90833,1
24683,-0.03125,0.9208984,-0.37939449999999997,-5.67627,-0.3662109,-1.89209,112.132,5.646973,-128.5181,15.69167,-5.958333,0.025,1
24933,-0.04003906,0.9404296999999999,-0.3554688,-2.502441,-3.90625,1.586914,111.6101,5.493164,-128.54,15.866670000000001,-5.933333,-0.30000000000000004,1
25153,-0.02734375,0.9301758,-0.34960939999999996,-1.037598,3.356934,-0.3051758,110.8026,5.449219,-128.3917,56.675,-84.81667,60.91667,1
25393,-0.03417969,0.9355469,-0.3398438,0.9155272999999999,-3.051758,1.403809,110.7477,4.993286,-128.2379,16.03333,-6.0,0.2666667,1
25633,-0.01611328,0.9331054999999999,-0.3452148,1.953125,1.281738,-0.9155272999999999,111.0223,4.762573,-128.4412,16.025,-6.041667,0.1833333,1
25853,-0.011230470000000001,0.9311522999999999,-0.3520508,1.586914,0.4882813,-1.220703,111.4343,4.795532,-128.3698,15.975,-6.183333,0.1333333,1
26163,-0.017089840000000002,0.9350586,-0.35693359999999996,1.220703,-1.6479489999999999,-1.037598,111.665,4.943848,-128.6169,56.35,-84.49167,61.375,1
26463,-0.02978516,0.9291992,-0.36425779999999996,0.24414059999999999,-0.1831055,-1.89209,111.7804,5.202026,-128.5565,15.89167,-6.15,-0.01666667,1
26764,-0.01660156,0.9291992,-0.3554688,0.5493163999999999,1.6479489999999999,-1.8310549999999999,111.6321,5.72937,-128.9136,56.91667,-84.16666,61.2,1
27063,-0.03173828,0.9331054999999999,-0.3535156,-0.24414059999999999,-1.6479489999999999,-0.8544921999999999,111.3574,5.339355,-128.6774,56.81667,-84.50833,61.3,1
27343,-0.02392578,0.9350586,-0.3535156,0.9155272999999999,0.4882813,0.1831055,111.3025,5.174561,-128.6609,16.00833,-6.058333,0.2583333,1
27583,-0.01904297,0.9350586,-0.3632813,1.708984,0.06103516,1.342773,111.9012,4.87793,-128.5071,56.41667,-84.35833,62.09167,1
27923,0.004882813000000001,0.9375,-0.3740234,3.90625,-0.24414059999999999,0.0,112.4945,4.894409,-128.7048,16.05,-6.508333,-0.15833329999999998,1
28133,-0.01904297,0.9169921999999999,-0.3818359,-0.5493163999999999,-2.807617,-2.01416,112.4396,4.833984,-128.5181,15.94167,-6.358333,-0.17500000000000002,1
28343,-0.02734375,0.9267578,-0.3671875,-2.746582,-1.281738,-1.159668,112.066,5.037231,-128.6829,15.85,-6.266667,-0.2833333,1
28553,-0.026367190000000002,0.934082,-0.35693359999999996,-2.197266,-0.3662109,-0.793457,111.6376,4.987793,-128.8861,15.84167,-6.033333,-0.15833329999999998,1
28773,-0.01806641,0.9345703,-0.3623047,-0.3051758,-1.6479489999999999,-0.6103516,111.4838,4.8614500000000005,-129.0729,56.46667,-84.6,61.34167,1
29003,-0.02441406,0.9257812999999999,-0.3427734,-0.4882813,0.12207029999999999,-0.3051758,111.1981,4.740601,-129.1333,15.90833,-6.108333,0.1,1
29253,-0.02539063,0.9409179999999999,-0.35742189999999996,3.662109,0.6103516,-2.075195,111.6211,4.910889,-129.5123,56.575,-84.50833,61.3,1
29503,-0.02294922,0.9243163999999999,-0.3676758,2.380371,-1.281738,-0.9765625,112.1375,4.905396,-129.3146,15.875,-6.358333,0.2833333,1
29773,-0.020996090000000002,0.9291992,-0.3774414,1.281738,-0.6713867,-1.342773,112.4451,5.015259,-129.5068,15.79167,-6.458333,0.1,1
30003,-0.02392578,0.921875,-0.378418,0.8544921999999999,-0.793457,-0.6713867,112.6318,4.866943,-129.4244,56.56667,-83.925,62.21667,1
30273,-0.02392578,0.9228516,-0.3789063,0.24414059999999999,-0.3051758,-0.9765625,112.7307,4.855957,-129.5068,56.575,-83.99167,62.01667,1
30563,-0.02392578,0.9238280999999999,-0.378418,0.12207029999999999,-0.5493163999999999,-0.8544921999999999,112.7527,4.883423,-129.5453,15.725,-6.5,0.05,1
30803,-0.02001953,0.9233397999999999,-0.37988279999999996,0.42724609999999996,-0.5493163999999999,-0.793457,112.8351,4.795532,-129.5618,15.78333,-6.491667,0.075,1
31083,-0.022460940000000002,0.9199219,-0.37939449999999997,-0.6713867,-0.9155272999999999,-0.9155272999999999,112.9449,4.784546,-129.5947,56.49166,-83.85,62.38334,1
31363,-0.02148438,0.9169921999999999,-0.375,0.12207029999999999,-0.6103516,-1.037598,113.0328,4.822998,-129.6552,15.85,-6.475,-0.03333333,1
31633,-0.020996090000000002,0.9248046999999999,-0.3818359,-0.12207029999999999,-0.3662109,-0.9155272999999999,113.0328,4.855957,-129.809,15.675,-6.433333,0.1,1
31953,-0.0234375,0.9262695,-0.3911133,-2.075195,-0.06103516,-1.525879,113.1812,4.894409,-129.6277,15.54167,-6.508333,-0.2166667,1
32173,-0.02392578,0.9189453,-0.3745117,-1.525879,-2.868652,-1.098633,112.868,4.888916,-129.6442,15.68333,-6.283333,0.09166667,1
32363,-0.026367190000000002,0.9291992,-0.3852539,-1.342773,3.234863,-1.586914,112.8735,5.07019,-129.4904,15.49167,-6.55,0.04166667,1
32573,-0.03173828,0.9282227,-0.3745117,0.8544921999999999,-1.953125,-0.06103516,112.8296,4.943848,-129.4684,15.76667,-6.366667,-0.05,1
32783,-0.020996090000000002,0.9223633,-0.38818359999999996,0.8544921999999999,-1.525879,-1.281738,112.8571,4.872437,-129.7375,15.81667,-6.583333,0.025,1
33003,-0.024902340000000002,0.9233397999999999,-0.38037109999999996,0.06103516,-0.4882813,-1.037598,112.89,4.921875,-129.7815,56.71667,-83.775,62.18333,1
33243,-0.02392578,0.9233397999999999,-0.38085939999999996,0.3051758,0.3051758,-0.9155272999999999,112.9395,4.888916,-129.6716,15.75833,-6.5,0.0,1
34663,-0.02978516,0.9169921999999999,-0.3989258,0.42724609999999996,-0.4882813,-0.6103516,113.5162,5.273438,-130.0287,15.7,-6.675,0.125,1
34903,-0.028808590000000002,0.9199219,-0.39599609999999996,-0.12207029999999999,-0.6713867,-1.037598,113.5382,5.443726,-130.1111,56.76667,-83.3,62.725,1
35143,-0.02783203,0.9189453,-0.3916016,0.6713867,-0.3051758,-0.9765625,113.5822,5.592041,-130.188,15.60833,-6.708333,0.08333334,1
35433,-0.02783203,0.921875,-0.3862305,-2.01416,-0.6713867,-0.6103516,113.5327,5.685425,-130.3033,56.66667,-83.41666,62.61666,1
35734,-0.02294922,0.9213867,-0.3837891,-0.3051758,-0.3051758,-0.6713867,113.2471,5.679932,-130.3308,15.68333,-6.6,-0.08333334,1
36033,-0.02392578,0.9228516,-0.3842773,0.0,-0.3051758,-0.793457,113.1262,5.564575,-130.3198,56.63334,-83.59167,62.31667,1
36333,-0.02392578,0.9238280999999999,-0.3857422,2.197266,-1.159668,-1.037598,113.2581,5.564575,-130.4022,15.825,-6.641667,0.09166667,1
36633,-0.02685547,0.9150391,-0.3911133,0.8544921999999999,-1.037598,-0.6103516,113.4338,5.537109,-130.5176,56.55,-83.48333,62.41667,1
36943,-0.01953125,0.9140625,-0.39501949999999997,2.319336,-0.42724609999999996,-0.6103516,113.8953,5.482178,-130.7758,56.55,-83.3,62.925,1
37213,-0.02050781,0.9165038999999999,-0.4160156,3.173828,-0.06103516,-0.24414059999999999,114.5325,5.767822,-130.968,15.475,-7.308333,0.1666667,1
37503,-0.01220703,0.9443359,-0.45068359999999996,4.02832,-0.793457,-2.075195,114.2798,6.383057,-131.347,15.1,-6.866667,-0.2,1
37693,-0.0234375,0.9458008,-0.43554689999999996,5.249023,-1.098633,-1.708984,114.4061,6.734619,-131.4789,15.225,-6.708333,-0.24166669999999998,1
37883,-0.02294922,0.9233397999999999,-0.4335938,3.173828,0.0,-1.281738,114.472,7.146606,-131.6492,15.40833,-6.716667,-0.1333333,1
38093,-0.02392578,0.9228516,-0.45751949999999997,0.6103516,-0.3662109,-1.037598,114.5544,7.415771,-131.7645,15.53333,-6.766667,-0.01666667,1
38313,-0.017089840000000002,0.9199219,-0.44384769999999996,-0.793457,0.12207029999999999,-1.159668,114.5435,7.651978,-131.8909,15.40833,-6.933333,-0.05,1
38523,-0.02441406,0.9057617,-0.4077148,-0.24414059999999999,-0.3662109,-1.098633,114.4281,7.987061,-132.0667,56.79167,-82.85833,63.34167,1
38773,-0.02734375,0.9003905999999999,-0.40283199999999997,-0.24414059999999999,-0.3662109,-0.9155272999999999,114.516,8.206787,-132.193,15.70833,-7.375,0.225,1
39043,-0.02832031,0.8886719,-0.41162109999999996,0.12207029999999999,-0.5493163999999999,-0.793457,114.4885,8.399048,-132.3248,15.80833,-7.358333,0.3833333,1
39253,-0.02441406,0.921875,-0.4321289,0.9155272999999999,-0.42724609999999996,-1.098633,114.516,8.657227,-132.4841,56.85,-82.8,63.30833,1
39503,-0.026367190000000002,0.9213867,-0.4174805,0.3662109,-0.7324219,-0.793457,114.4281,8.800049,-132.605,15.35,-7.091667,-0.08333334,1
39753,-0.02734375,0.9106445,-0.40283199999999997,-0.9765625,-0.24414059999999999,-0.793457,113.9722,9.113159,-132.8961,56.79167,-83.00833,63.15,1
40013,-0.04199219,0.9194336,-0.4067383,-1.464844,-5.065918,-0.3662109,113.5107,9.338379,-133.2751,15.55833,-6.741667,-0.31666669999999997,1
40263,-0.01757813,0.9135742,-0.3935547,-0.5493163999999999,6.347656,-1.098633,113.0548,9.250488,-133.5828,56.96667,-83.40833,62.39167,1
40563,-0.01464844,0.9121094,-0.4023438,1.281738,-1.525879,1.8310549999999999,113.3679,8.058472,-132.9236,15.741670000000001,-6.825,0.05,1
40873,-0.01855469,0.9223633,-0.3916016,-0.9155272999999999,-0.12207029999999999,-2.746582,113.3295,7.514648,-133.0609,56.08333,-83.79166,62.64167,1
41173,-0.01611328,0.9252929999999999,-0.38818359999999996,-2.075195,-2.868652,-1.159668,112.912,7.827759,-133.5333,56.73333,-83.925,62.10833,1
41483,-0.02001953,0.9267578,-0.37207029999999996,-1.8310549999999999,-2.01416,-1.6479489999999999,112.066,7.597046,-133.9398,15.7,-6.258333,0.3416667,1
41713,-0.009277344,0.9301758,-0.3696289,0.7324219,2.319336,-2.197266,112.11,7.597046,-134.0002,15.79167,-6.35,0.05,1
41943,-0.0390625,0.9252929999999999,-0.37158199999999997,3.234863,-1.464844,0.12207029999999999,112.6099,7.410278,-133.2202,56.71667,-83.81667,62.01667,1
42173,-0.01318359,0.9033203,-0.38085939999999996,2.01416,0.06103516,-2.319336,113.5217,7.410278,-133.5718,15.40833,-6.666667,0.30000000000000004,1
42443,-0.03369141,0.9125977,-0.40625000000000006,1.098633,-0.5493163999999999,-0.8544921999999999,113.9557,7.591553,-133.374,15.66667,-6.966667,0.1166667,1
42663,-0.01904297,0.9174804999999999,-0.40478519999999996,0.1831055,-0.6713867,-1.098633,114.0216,7.844238,-133.5498,15.65,-7.025,-0.09166667,1
42873,-0.02783203,0.9106445,-0.40429689999999996,-0.1831055,0.0,-0.3051758,114.104,8.025513,-133.4729,56.65,-83.01667,63.08333,1
43123,-0.01855469,0.9345703,-0.43408199999999997,-0.3051758,-1.281738,-0.8544921999999999,113.6755,8.168335,-133.6597,15.475,-6.875,0.08333334,1
43363,-0.020996090000000002,0.9057617,-0.4003906,0.1831055,-1.953125,-1.220703,113.5712,8.267212,-133.9069,56.625,-83.175,62.825,1
43613,-0.02832031,0.9199219,-0.39550779999999996,-1.281738,-0.8544921999999999,-1.037598,113.6096,8.547363,-134.1486,15.60833,-6.558333,-0.15,1
43893,-0.02148438,0.9199219,-0.3916016,-1.953125,-1.037598,-0.9155272999999999,113.2855,8.66272,-134.3463,56.90833,-83.45,62.69167,1
44193,-0.02832031,0.9189453,-0.38769529999999996,-0.3662109,-0.7324219,-1.037598,113.2526,8.415527,-134.3848,15.56667,-6.708333,0.1,1
44493,-0.02929688,0.9135742,-0.3925781,1.708984,-0.8544921999999999,-0.6713867,113.5107,8.21228,-134.5166,56.75834,-83.3,62.68333,1
44783,-0.02539063,0.9233397999999999,-0.40380859999999996,0.3051758,-0.8544921999999999,-1.098633,113.67,8.338623,-134.6814,15.65833,-6.8,-0.05833333,1
45093,-0.02929688,0.9194336,-0.3974609,-0.9765625,-1.281738,-0.3051758,113.5767,8.366089,-134.8846,56.75834,-83.475,62.775,1
45403,0.004882813000000001,0.9204102,-0.3857422,-2.807617,-0.7324219,-2.563477,112.8076,8.723145,-135.9448,57.45833,-83.55,61.91667,1
45673,-0.04296875,0.9155272999999999,-0.38037109999999996,0.06103516,7.202148,-0.06103516,112.8296,8.289185,-135.0385,15.625,-6.541667,0.1666667,1
45953,0.0009765625,0.9130859,-0.41064449999999997,2.01416,-5.859375,-0.6103516,113.2745,7.948608,-135.3076,15.60833,-6.741667,0.35833329999999997,1
46173,-0.03320313,0.9086913999999999,-0.3999023,0.1831055,-0.24414059999999999,-0.5493163999999999,113.7195,7.536621,-135.2527,56.60833,-83.425,62.71667,1
46403,-0.01904297,0.9160155999999999,-0.3930664,-2.380371,-2.13623,0.06103516,113.4613,7.311401,-135.4724,15.775,-6.675,-0.35833329999999997,1
46673,-0.01464844,0.9067383,-0.3857422,-1.403809,-0.8544921999999999,-1.220703,113.0493,7.168579,-135.5548,15.725,-6.541667,0.3333333,1
46883,-0.02734375,0.9199219,-0.3911133,1.403809,-0.24414059999999999,-2.01416,113.4668,7.124634,-135.2802,15.675,-6.858333,0.15,1
47103,-0.01953125,0.9135742,-0.3999023,0.6103516,-0.7324219,-1.342773,113.7744,7.399292,-135.4559,56.825,-83.175,62.94167,1
47353,-0.030273440000000002,0.9150391,-0.4018555,-0.6713867,-1.098633,-1.037598,113.6865,7.602539,-135.5109,15.7,-6.741667,-0.1,1
47594,-0.02685547,0.9165038999999999,-0.39550779999999996,0.0,0.3662109,-1.281738,113.4723,7.745361,-135.6757,56.90833,-83.28333,62.31667,1
47833,-0.03417969,0.9155272999999999,-0.3930664,-0.24414059999999999,-0.9765625,-1.159668,113.3899,7.816772,-135.7031,15.68333,-6.691667,-0.075,1
48123,-0.02978516,0.9165038999999999,-0.3930664,-0.1831055,-0.12207029999999999,-0.9765625,113.269,7.937622,-135.802,56.9,-83.35,62.51667,1
48423,-0.026367190000000002,0.9189453,-0.390625,-0.8544921999999999,0.6713867,-0.7324219,113.1097,7.855225,-135.7416,15.7,-6.6,-0.05,1
48723,-0.02294922,0.921875,-0.3842773,-0.9765625,0.1831055,-0.42724609999999996,112.9065,7.509155,-135.6592,56.64167,-83.66666,62.61666,1
49023,-0.02392578,0.9262695,-0.38134769999999996,-0.7324219,-0.793457,-0.4882813,112.6868,7.174072,-135.7361,15.78333,-6.5,-0.1166667,1
49334,-0.02587891,0.9291992,-0.3789063,0.6103516,-1.098633,-0.7324219,112.6263,6.921387,-135.813,56.4,-84.01667,62.14167,1
49653,-0.03662109,0.9321288999999999,-0.3691406,-1.8310549999999999,-2.258301,0.42724609999999996,112.6318,6.7236329999999995,-135.9723,15.44167,-6.525,-0.6000000000000001,1
51133,0.05517578,0.9633788999999999,-0.3828125,-1.6479489999999999,-4.455566,1.953125,113.0219,6.536865,-137.3895,15.89167,-6.166667,-0.025,1
51423,-0.02734375,0.9301758,-0.3916016,3.417969,-5.065918,0.42724609999999996,113.5437,6.234741,-136.5436,56.525,-83.60833,62.80833,1
51673,-0.001953125,0.9160155999999999,-0.40332029999999996,3.112793,-0.12207029999999999,-1.220703,114.1315,6.097412,-136.9556,15.58333,-7.008333,0.2333333,1
51933,-0.02001953,0.9140625,-0.41113279999999996,0.1831055,0.12207029999999999,-2.075195,114.472,6.795044,-136.9556,56.625,-82.875,63.35,1
52163,-0.03271484,0.9038086,-0.40429689999999996,-1.708984,-0.6713867,-0.793457,114.1809,7.1521,-136.9391,15.46667,-6.591667,0.2083333,1
52403,-0.02783203,0.9125977,-0.3930664,1.037598,-0.9155272999999999,0.0,114.2908,7.382813,-137.1478,15.59167,-7.316667,0.2666667,1
52623,-0.015136720000000001,0.9140625,-0.41992189999999996,0.1831055,-0.42724609999999996,-0.8544921999999999,114.3237,7.536621,-137.4939,56.48333,-83.15,63.275,1
52863,-0.02001953,0.9169921999999999,-0.40283199999999997,-0.9765625,-1.037598,-1.098633,114.1919,7.679443,-137.5763,15.46667,-6.883333,-0.1416667,1
53143,-0.02001953,0.9106445,-0.4052734,-0.1831055,-0.6103516,-1.281738,113.9886,7.866211,-137.7301,15.575,-6.858333,0.05833333,1
53353,-0.024902340000000002,0.9091796999999999,-0.40625000000000006,0.24414059999999999,-0.6103516,-1.159668,113.9941,8.184814,-137.8674,56.49166,-83.14167,63.29167,1
53603,-0.02148438,0.9121094,-0.4072266,0.12207029999999999,-0.4882813,-0.793457,114.0161,8.349609,-137.9883,15.55833,-6.966667,0.025,1
53853,-0.02148438,0.9116211,-0.4072266,-0.06103516,-0.3662109,-0.9155272999999999,113.9886,8.574829,-138.1586,56.55833,-83.08334,63.38334,1
54113,-0.020996090000000002,0.9121094,-0.4023438,-0.3051758,-0.42724609999999996,-0.9765625,113.9886,8.706665,-138.2849,15.53333,-7.166667,0.0,1
54363,-0.01953125,0.9111328,-0.40478519999999996,-1.6479489999999999,0.3051758,-0.12207029999999999,113.8458,8.76709,-138.5211,56.475,-83.24167,63.25834,1
54663,-0.01660156,0.9204102,-0.38916019999999996,-5.67627,-0.5493163999999999,-1.098633,112.6703,8.552856,-138.6639,15.73333,-6.516667,-0.5583332999999999,1
54973,-0.02197266,0.9252929999999999,-0.36572269999999996,-1.220703,-1.953125,-0.6713867,111.6101,8.294678,-138.9166,56.625,-84.43333,61.70833,1
55273,-0.04394531,0.9233397999999999,-0.3696289,2.563477,0.6713867,-0.9155272999999999,111.9562,8.151855,-138.5376,56.625,-84.11667,61.875,1
55583,-0.01757813,0.9223633,-0.3925781,4.272461,0.7324219,-1.464844,112.9779,7.921143,-138.7408,15.63333,-6.791667,0.36666669999999996,1
55823,-0.01367188,0.9267578,-0.39501949999999997,1.525879,-2.746582,-4.455566,113.6096,8.173828,-138.7134,15.65,-7.066667,0.1666667,1
56043,-0.03076172,0.9145508,-0.3925781,0.12207029999999999,-3.540039,-1.098633,113.8788,8.388062,-138.6475,56.825,-83.075,63.13334,1
56273,-0.02685547,0.9155272999999999,-0.40283199999999997,-2.929688,1.708984,0.0,113.28,8.508911,-138.8672,15.73333,-6.441667,-0.1416667,1
56543,-0.02685547,0.9145508,-0.3901367,-1.159668,-1.037598,-0.4882813,112.912,8.289185,-138.8617,15.60833,-6.708333,0.075,1
56753,-0.01806641,0.9287109,-0.3789063,0.42724609999999996,-0.8544921999999999,-0.9765625,112.934,8.12439,-139.0155,15.71667,-6.741667,-0.008333334000000001,1
56973,-0.026367190000000002,0.921875,-0.38916019999999996,0.24414059999999999,-1.159668,-1.098633,113.0273,7.915649,-139.0594,56.65833,-83.40833,62.40833,1
57223,-0.03076172,0.921875,-0.39550779999999996,-0.24414059999999999,-1.159668,-0.7324219,113.0164,7.827759,-139.2627,15.66667,-6.625,-0.05,1
57463,-0.04003906,0.921875,-0.38720699999999997,-4.394531,-2.807617,-1.6479489999999999,112.6373,7.525635,-139.5099,56.85,-83.81667,61.89167,1
57703,-0.01318359,0.9233397999999999,-0.37353519999999996,-1.403809,-1.89209,-2.502441,111.9672,8.025513,-140.2679,15.75,-6.216667,0.008333334000000001,1
57993,-0.06298828000000001,0.9194336,-0.3691406,1.281738,0.5493163999999999,-0.24414059999999999,112.2363,7.58606,-139.2297,57.025,-83.7,61.94167,1
58293,-0.015625,0.9287109,-0.3769531,0.3662109,1.159668,-0.9155272999999999,112.4561,7.300415,-139.8175,15.70833,-6.458333,0.09166667,1
58593,-0.02587891,0.9204102,-0.38037109999999996,1.6479489999999999,-1.525879,1.159668,112.7472,6.992798,-139.7241,56.83333,-83.78333,62.01667,1
58893,0.03759766,0.9121094,-0.3701172,4.150391,3.662109,3.173828,113.1427,6.080933,-140.1251,15.68333,-7.583333,1.191667,1
59193,-0.02734375,0.9995117,-0.4077148,-6.408691,-6.530762,0.06103516,114.6698,4.515381,-140.5646,55.425,-84.15833,62.89167,1
59503,-0.0078125,1.005859,-0.41259769999999996,-32.34863,14.70947,-8.728026999999999,106.9464,5.586548,-139.7131,56.11666,-87.36667,57.84167,1
59773,-0.02441406,0.9555663999999999,-0.1918945,-67.32178,3.356934,-5.737305,97.41028,6.520386,-138.2904,17.54167,-2.091667,-11.30833,1
60063,-0.10839839999999999,0.9863280999999999,0.43457029999999996,-62.56104,-6.408691,7.751465,74.65759,6.9104,-138.5321,16.35833,7.883333,-1.2,1
60423,0.01367188,0.8574219,0.20507809999999999,37.53662,-25.08545,-7.324219,76.03638,5.740356,-145.3656,14.5,1.9583329999999999,7.258333,1
60653,0.08642578000000001,0.8017578,0.06933594,58.59375,-3.4790039999999998,-3.90625,84.88586,6.124878,-148.8153,15.40833,0.6916667,7.691667,1
60863,-0.026367190000000002,1.067383,-0.06835938,37.78076,48.58398,-11.16943,94.36707,7.097168,-144.5526,17.24167,-1.966667,3.325,1
61083,-0.2231445,0.9301758,-0.300293,-5.004883,28.32031,-6.896973,101.3818,8.322144,-130.4626,56.06667,-86.2,58.73333,1
61323,-0.1542969,0.953125,-0.2617188,-10.0708,26.7334,3.90625,100.7227,7.89917,-125.6232,15.875,-5.225,-0.375,1
61603,-0.06005859,1.074219,-0.25537109999999996,0.6103516,18.37158,-0.42724609999999996,100.7007,5.641479,-122.3328,17.15833,-3.775,3.308333,1
61813,0.08349609,0.9946288999999999,-0.18652339999999998,4.943848,8.422852,4.516602,103.1561,2.290649,-120.4211,47.43333,-87.90833,64.25,1
62053,0.184082,0.9306641,-0.2202148,-8.605957,36.62109,-3.112793,101.9806,0.2307129,-117.3615,15.04167,-5.183333,-0.5666667,1
62313,0.1889648,1.208496,-0.269043,22.82715,51.51367,-10.13184,102.7936,2.801514,-103.8812,41.01667,-87.46667,68.39167,1
62573,-0.12451169999999999,0.8759766,-0.05029297,-15.68604,90.33203,-13.00049,103.8373,1.664429,-90.03296,17.55833,-3.416667,0.9416667,1
62823,-0.27099609999999996,0.9023437999999999,-0.24462889999999998,-11.96289,36.43799,-6.896973,103.0408,4.784546,-75.3717,29.78333,-86.73333,71.61667,1
63123,0.05029297,1.345703,-0.3242188,8.605957,-11.90186,-12.39014,104.3811,3.526611,-77.29431,19.575,-1.441667,3.941667,1
63423,0.01855469,0.9125977,-0.2070313,0.06103516,37.35352,9.94873,105.1337,1.757813,-80.18921,28.23333,-85.51667,73.58334,1
63733,-0.044921880000000004,0.9565429999999999,-0.28564449999999997,-3.845215,32.89795,-20.81299,103.2935,2.785034,-69.37866,24.04167,-87.85,71.45834,1
64003,0.1889648,0.9526367,-0.02685547,34.66797,89.66064,-26.24512,105.0128,1.554565,-61.12793,17.55,-2.658333,-0.44166669999999997,1
64323,-0.12207029999999999,0.7973633,-0.26269529999999996,3.2958979999999998,-25.87891,21.30127,102.1509,3.213501,-49.4165,14.741670000000001,-89.13333,68.175,1
64543,0.06982422,1.135742,-0.2841797,15.25879,-18.67676,-12.69531,104.9304,2.433472,-52.78381,20.325,0.0,0.1916667,1
64793,0.32470699999999997,0.9931641,-0.1577148,13.85498,23.4375,16.78467,104.9854,3.279419,-61.3147,14.69167,-3.175,-1.233333,1
65003,0.234375,0.8364258,-0.2280273,-13.06152,25.81787,-19.28711,104.3591,1.51062,-57.6123,15.26667,-5.133333,0.3416667,1
65213,0.15820309999999999,0.9887695,-0.3833008,4.455566,10.00977,-8.666992,104.8315,4.509888,-51.94336,15.6,-2.191667,2.4,1
65433,-0.19775389999999998,0.8901367,-0.1333008,3.356934,-14.5874,-18.61572,105.5676,2.070923,-43.70361,12.26667,-87.375,68.91666,1
65673,-0.1303711,0.8320312999999999,-0.2592773,-9.338379,-12.08496,13.61084,104.046,4.015503,-45.23621,16.01667,-5.483333,0.6666667,1
65923,-0.1230469,0.8857421999999999,-0.009277344,17.45605,-66.16211,17.51709,105.304,3.24646,-52.56409,16.11667,-87.10833,70.56667,1
67333,0.1499023,1.095703,-0.08300781,-13.67188,-42.72461,-10.31494,104.491,4.202271,-56.60156,19.26667,-87.20834,72.95834,1
67573,0.001464844,0.7915038999999999,-0.23339839999999998,-8.544922,7.019043,3.723145,104.0515,1.450195,-55.05798,14.54167,-4.216667,-0.7666666999999999,1
67863,0.11669919999999999,1.380371,-0.3530273,2.13623,-26.61133,30.2124,104.6997,3.9935300000000002,-52.22351,16.875,-87.075,73.04166,1
68163,0.0625,0.9047852,-0.1845703,-6.835938,-13.97705,-11.65771,104.9249,3.878174,-46.02173,14.39167,-4.7,-1.641667,1
68463,-0.2226563,1.000977,-0.5336913999999999,15.38086,10.68115,-5.67627,104.6613,2.416992,-47.8949,15.05,-85.925,73.6,1
68763,0.1435547,0.9213867,-0.1733398,3.90625,7.751465,16.11328,104.6667,3.438721,-55.26123,13.54167,-3.891667,-1.916667,1
69063,-0.2436523,1.050293,-0.39550779999999996,2.502441,-3.051758,-16.90674,104.0515,5.053711,-50.306400000000004,18.11667,-86.85,73.29166,1
69373,-0.32617189999999996,0.9892578,-0.1572266,1.89209,-20.87402,-24.41406,104.2657,2.548828,-45.13733,14.25833,-85.55833,72.875,1
69643,-0.1635742,0.8603516,-0.2753906,-8.483887,-7.873535,7.080078,102.9254,4.844971,-47.48291,14.225,-3.891667,1.158333,1
69923,-0.004394531,0.9633788999999999,-0.06933594,11.96289,-46.99707,3.417969,105.6335,3.57605,-52.03125,18.58333,-1.658333,-1.908333,1
70123,0.12207029999999999,0.9140625,-0.1689453,8.911133,19.9585,8.972168,105.2655,3.224487,-56.54114,13.49167,-4.125,-1.4583329999999999,1
70313,-0.09765625,0.8681641,-0.3085938,-8.056641,24.29199,-24.84131,104.1284,2.993774,-53.26172,17.23333,-7.716667,-0.425,1
70523,-0.11669919999999999,1.545898,-0.1113281,-14.03809,-14.4043,35.7666,104.9744,3.636475,-51.70166,19.36667,-2.0,1.441667,1
70733,-0.2612305,0.8916016,-0.12060549999999999,7.629395,-17.15088,-25.81787,105.3094,1.587524,-45.26367,14.29167,-4.733333,-2.6,1
70953,0.002929688,0.9609375,-0.2871094,8.605957,-11.47461,13.48877,103.8647,2.856445,-50.51514,14.3,-85.11667,72.04166,1
71193,-0.22998049999999998,0.9819336,-0.024902340000000002,13.24463,-49.80469,19.47021,105.3754,4.53186,-51.55334,16.8,-1.925,-0.9583332999999999,1
71473,0.04589844,0.8979492,-0.16259769999999998,0.3662109,21.24023,7.873535,104.425,3.823242,-57.56836,14.58333,-4.058333,-1.766667,1
71683,-0.09814453000000001,1.019043,-0.38818359999999996,-4.821777,-5.065918,-13.85498,104.079,5.048218,-54.77234,25.15833,-5.391667,2.1,1
71953,0.1381836,1.000488,0.02001953,-0.1831055,58.04443,4.150391,105.5841,2.938843,-51.84998,16.54167,-3.133333,0.17500000000000002,1
72183,-0.1806641,0.8530272999999999,-0.2353516,-14.5874,-11.65771,4.699707,103.3429,5.278931,-52.41028,16.16667,-85.94167,72.33334,1
72443,-0.1845703,0.9389647999999999,-0.5449219,12.3291,-4.577637,7.568359,104.5294,3.081665,-56.03577,14.75833,-1.166667,-1.441667,1
72693,0.21289059999999999,0.9228516,-0.1601563,9.70459,30.94482,12.146,104.9689,4.207764,-62.57813,18.56667,-83.70834,75.61667,1
72993,-0.12402339999999999,1.04541,-0.33300779999999996,7.019043,0.3051758,-12.08496,104.6063,4.669189,-54.6405,20.66667,-6.616667,3.1,1
73293,-0.3056641,1.1010739999999999,-0.25439449999999997,-3.78418,5.126953,-16.23535,105.0458,1.521606,-47.59827,11.61667,-84.76667,72.65,1
73603,0.05126953,0.7773437999999999,-0.2695313,-0.3662109,-20.1416,22.03369,102.6892,4.042969,-52.92664,14.03333,-86.025,72.76667,1
73873,0.1616211,1.11377,-0.2758789,7.324219,-7.263184,-28.19824,104.9139,3.647461,-53.9978,20.64167,-0.8833333,-1.825,1
74153,-0.11279299999999999,0.8466796999999999,-0.230957,-16.47949,6.286621,13.3667,103.5626,2.686157,-58.73291,14.1,-4.341667,-2.241667,1
74353,-0.08837891,0.9692383,-0.2504883,1.220703,0.6103516,-14.34326,102.42,4.147339,-55.37109,16.35833,-6.616667,1.808333,1
74543,-0.12255859999999999,0.8071288999999999,0.08740234,8.544922,50.47607,2.624512,103.1891,2.653198,-53.22876,22.59167,-3.658333,-0.775,1
74753,-0.1074219,0.8925780999999999,-0.1293945,11.16943,-21.24023,-4.211426,103.5132,3.383789,-49.67468,12.375,-3.783333,-1.925,1
74963,-0.06884766,0.8129883,-0.2382813,-5.493164,-11.47461,17.45605,101.8982,3.702393,-52.61902,17.46667,-8.425,0.65,1
75183,-0.1474609,1.091797,-0.05566406,15.86914,-63.90381,10.74219,104.6613,4.136353,-60.52368,18.15833,-84.78333,74.73333,1
75433,-0.12207029999999999,0.8437500000000001,-0.1855469,-11.77979,30.09033,5.371094,103.3154,2.416992,-59.19434,14.225,-4.266667,-2.25,1
75703,-0.1650391,0.890625,-0.3129883,-0.3051758,10.68115,-16.96777,102.3322,3.603516,-53.50891,14.65,-7.891667,-0.08333334,1
75913,-0.25,0.824707,0.07080078000000001,13.00049,60.72998,15.44189,102.7112,1.939087,-49.72412,22.95,-3.791667,1.125,1
76133,-0.06640625,0.7207030999999999,-0.1870117,-9.70459,-12.02393,1.220703,101.9971,4.421997,-48.64746,13.425,-4.216667,0.49166669999999996,1
76413,0.1870117,0.9365234,0.04785156,1.8310549999999999,-29.54102,-14.16016,104.8975,3.411255,-53.81653,14.38333,-85.45,72.5,1
76673,0.1801758,0.8925780999999999,-0.13134769999999998,5.737305,25.93994,9.155273,105.1776,3.707886,-57.57385,13.866670000000001,-4.258333,-1.533333,1
76923,-0.1450195,1.041016,-0.33251949999999997,-5.310059,-14.70947,-13.79395,104.826,4.954834,-50.52612,14.325,-87.03333,71.075,1
77223,-0.2832031,1.102051,-0.23339839999999998,-3.845215,8.117676,-14.5874,104.7986,1.664429,-47.0929,16.84167,-3.125,0.3416667,1
77533,-0.05224609,0.8051758,-0.2680664,4.760742,-27.52686,21.72852,103.1232,3.587036,-50.44373,12.375,-87.18333,70.18333,1
77833,0.05810547,1.195313,-0.08300781,-5.493164,-53.40576,-10.80322,106.3257,4.75708,-57.65625,16.75833,-85.29166,73.35,1
78143,0.1367188,0.8159179999999999,-0.3149414,-6.347656,26.24512,-24.59717,104.8535,3.361816,-56.33789,17.84167,-5.291667,0.3333333,1
78374,0.159668,1.325684,-0.3930664,23.19336,15.74707,13.00049,105.5951,5.361328,-53.56934,15.64167,0.8166667,2.091667,1
78603,0.05126953,0.9755859,-0.199707,1.89209,-48.70605,-0.9155272999999999,105.4028,3.900146,-51.87744,13.45833,-86.13333,71.61667,1
78833,0.1333008,0.8164062999999999,-0.21875000000000003,-1.89209,-21.24023,21.3623,103.3813,3.894653,-58.55713,16.375,-10.00833,2.058333,1
79103,0.35644529999999996,1.5498049999999999,-0.28125,-20.87402,-48.88916,-18.06641,106.1005,3.235474,-60.9137,20.01667,-2.308333,2.508333,1
79313,0.2900391,0.8676758,-0.1459961,-3.90625,5.554199,18.12744,104.87,4.537354,-66.46179,14.375,-4.866667,-1.408333,1
79533,-0.1552734,0.9594727,-0.29394529999999996,4.150391,2.929688,-6.591797,103.9746,3.493652,-60.01282,17.25833,-87.03333,71.90833,1
79784,0.1098633,0.7836913999999999,0.175293,24.53613,60.72998,-2.868652,103.4967,1.620483,-57.98035,21.05833,-2.866667,-0.6666667,1
80023,-0.1333008,0.6909179999999999,-0.2036133,-11.84082,2.563477,-8.850098,103.3099,3.823242,-53.22876,14.00833,-87.2,70.75833,1
80263,-0.005371094000000001,1.125,-0.5146484,5.249023,-17.21191,11.04736,104.4196,2.109375,-56.89819,20.025,-4.25,-1.208333,1
80553,0.17382809999999999,0.9682617,-0.19042969999999998,4.394531,24.04785,15.07568,104.8041,3.878174,-63.31421,18.03333,-85.15,73.8,1
80853,-0.1303711,0.9726562999999999,-0.29443359999999996,4.821777,3.051758,-16.72363,104.1064,4.570313,-56.27197,16.41667,-8.366667,2.975,1
81153,-0.09082031,1.256836,-0.2338867,3.90625,10.62012,-6.225586,105.705,1.082153,-53.69019,14.03333,-84.225,72.95,1
81453,-0.05224609,0.7592772999999999,-0.30126949999999997,-3.967285,-10.98633,18.79883,104.2712,3.674927,-55.89844,17.6,-8.05,-0.275,1
81763,0.1499023,0.9785155999999999,0.015136720000000001,-20.38574,-39.24561,2.563477,104.024,3.751831,-60.24902,18.20833,-84.7,72.8,1
82063,0.02050781,0.8012695,-0.2763672,-2.075195,23.62061,-23.31543,101.651,2.48291,-55.70068,15.10833,-86.24167,70.4,1
83503,-0.1645508,1.02002,-0.4155273,-5.554199,-19.04297,-6.774902,104.9854,5.987549,-60.19958,23.21667,-4.258333,0.06666667,1
83853,0.09619141,0.8793945,-0.2314453,-9.765625,-5.126953,-8.728026999999999,105.0568,5.251465,-57.37061,16.06667,-84.00833,71.59167,1
84113,0.02734375,0.8374022999999999,-0.296875,10.43701,-16.96777,14.70947,104.1559,4.888916,-58.71643,19.79167,-6.575,1.441667,1
84363,0.2260742,1.037598,-0.11474609999999999,-6.164551,-10.31494,-5.249023,106.2433,6.893921,-65.86853,19.35,-82.84167,73.275,1
84593,0.0546875,0.7998046999999999,-0.3046875,1.037598,18.79883,-8.422852,106.8256,4.202271,-61.52893,15.13333,-4.775,-1.425,1
84833,-0.078125,0.9995117,-0.4467773,-3.967285,-4.516602,-7.751465,107.4957,6.487427,-57.10144,24.39167,-2.525,-1.0,1
85053,-0.2758789,0.9921875,-0.21386719999999998,-5.615234,-27.771,-22.33887,107.5946,3.334351,-53.88794,12.51667,-83.46667,70.65,1
85303,-0.17480469999999998,0.8608397999999999,-0.2509766,-12.93945,-25.32959,11.35254,104.9689,5.861206,-59.51843,13.94167,-4.9,0.8666667,1
85573,-0.1552734,1.143066,-0.40478519999999996,1.8310549999999999,-17.08984,10.49805,105.6116,3.88916,-64.81384,15.39167,0.275,0.2916667,1
85783,0.1523438,0.9570312999999999,-0.1655273,-5.981445,41.07666,2.807617,104.5184,4.724121,-70.14771,19.21667,-84.9,72.025,1
86023,-0.04248047,0.8041992,-0.2641602,-3.173828,47.9126,-32.4707,103.0188,4.416504,-61.93542,18.03333,-6.458333,-0.125,1
86283,0.03320313,0.9780272999999999,0.041015630000000004,-9.216309,52.79541,6.469727,105.249,3.658447,-54.86023,12.06667,-86.025,68.64167,1
86543,0.0703125,0.8911133,-0.2182617,-14.5874,-39.79492,-4.333496,103.5791,5.092163,-58.15613,14.0,-3.891667,-1.633333,1
86793,-0.159668,1.041992,-0.5346679999999999,18.98193,-27.52686,19.40918,103.8098,3.482666,-67.76917,18.93333,-86.04166,71.15,1
87093,0.1464844,0.9624022999999999,-0.1455078,7.995605,36.25488,5.737305,104.3262,4.619751,-72.20215,13.06667,-3.65,-0.7333333,1
87393,-0.13476559999999999,1.103516,-0.41162109999999996,1.7700200000000001,-3.051758,-1.6479489999999999,104.9799,5.350342,-61.73767,17.83333,-86.48333,70.70834,1
87703,-0.1577148,0.9331054999999999,-0.1474609,13.18359,8.972168,-17.02881,105.5182,2.219238,-54.92065,13.30833,-4.391667,-1.166667,1
88033,0.01318359,1.037109,-0.3974609,13.67188,-33.02002,16.47949,105.1886,3.251953,-57.51892,24.56667,-4.766667,2.691667,1
88343,0.19042969999999998,0.9082030999999999,-0.15820309999999999,-3.356934,-10.55908,10.0708,105.7709,5.597534,-65.81909,14.19167,-3.016667,-1.075,1
88593,-0.13525389999999998,0.8808594,-0.30908199999999997,-3.90625,32.40967,-28.93066,104.0845,4.987793,-61.2323,17.26667,-86.06667,70.625,1
88823,-0.1845703,1.162109,-0.05957031,-11.59668,39.30664,24.84131,104.7601,4.691162,-58.35938,19.44167,-2.483333,0.6583333,1
89063,-0.17041019999999998,0.8217772999999999,-0.1342773,5.249023,-14.34326,-9.460449,105.3589,4.224243,-54.16809,13.25,-4.991667,-0.65,1
89283,0.07763672,1.026855,-0.43554689999999996,9.460449,-18.00537,10.0708,105.4688,4.586792,-61.18835,17.26667,-84.66666,71.425,1
89523,-0.19824219999999998,0.9819336,-0.02197266,13.3667,-52.36816,7.141113,106.3971,5.641479,-66.60461,15.95833,-2.975,-0.8166667,1
89803,-0.04980469,0.8413086,-0.1606445,-13.48877,13.42773,5.615234,104.6118,4.564819,-70.18066,13.75833,-4.75,0.01666667,1
90013,0.3120117,0.8974609,-0.5419921999999999,9.58252,-7.751465,5.859375,105.6116,6.405029,-67.59888,21.51667,-84.08334,72.825,1
90253,-0.05371094,1.222168,-0.2231445,10.86426,17.63916,-0.9765625,106.2103,2.867432,-62.57813,13.4,-3.175,0.35000000000000003,1
90513,-0.004882813000000001,0.7919921999999999,-0.31835939999999996,0.3662109,-25.32959,21.54541,104.3591,5.394287,-68.64807,21.81667,-84.43333,72.3,1
90773,0.08837891,1.158203,-0.2275391,-5.310059,-7.69043,-15.56396,106.1609,4.801025,-71.29578,22.49167,-2.816667,-0.48333329999999997,1
91023,-0.05761719,0.7895508,-0.24121089999999998,-14.28223,-4.577637,10.13184,105.4633,4.597778,-78.65662,25.90833,-83.44167,73.63333,1
91323,0.03271484,1.354004,-0.4868164,15.44189,-11.47461,26.55029,105.7379,6.71814,-76.16272,17.18333,-0.9416667,0.9666665999999999,1
91623,0.056640630000000004,0.9360352,-0.1811523,-2.441406,-16.41846,-8.178711,103.3704,5.449219,-75.86609,25.83333,-85.125,72.075,1
91933,0.08007813,1.289551,-0.3442383,4.760742,-4.516602,-0.5493163999999999,103.0737,4.669189,-80.9967,27.075,-85.21667,72.025,1
92203,0.17041019999999998,0.9106445,0.03515625,-13.79395,-57.06787,0.6713867,102.3157,5.185547,-87.24243,17.41667,-3.741667,0.8416665999999999,1
92483,0.1459961,0.8056641,-0.2817383,-7.019043,7.446289,-13.48877,101.9312,3.169556,-90.19775,16.48333,-4.275,-0.25,1
92683,0.3457031,0.9648437999999999,-0.46679689999999996,13.73291,28.38135,-5.615234,102.6068,5.679932,-87.90161,14.2,0.7083332999999999,1.441667,1
92873,-0.1494141,1.214355,-0.1445313,-10.49805,41.56494,11.2915,102.8979,2.460938,-81.27136,14.8,-2.016667,1.066667,1
93083,0.0,0.7529296999999999,-0.265625,-12.87842,-10.43701,-9.82666,102.1014,5.608521,-83.4906,13.075,-3.775,-1.3333329999999999,1
93293,-0.02832031,1.04834,-0.4301758,22.46094,-34.36279,15.07568,102.4969,3.658447,-87.74231,25.76667,-3.558333,-0.5833332999999999,1
93513,0.2158203,0.9746094,-0.1450195,16.05225,33.3252,17.57813,102.5793,4.899902,-94.07043,33.675,-84.70834,72.24167,1
93753,0.1884766,0.8295897999999999,-0.2460938,-8.483887,19.16504,-13.3667,101.5686,2.807007,-91.15906,16.20833,-4.4,0.4166667,1
94033,0.26318359999999996,0.9462891,-0.4375,-0.793457,12.3291,-0.8544921999999999,101.8762,5.07019,-88.87939,15.1,1.283333,0.025,1
94243,-0.1152344,0.9003905999999999,-0.1201172,8.666992,-20.69092,-8.666992,102.6233,3.378296,-83.60046,12.24167,-3.858333,-2.025,1
94513,-0.0546875,0.7675780999999999,-0.2236328,0.6713867,-20.08057,18.06641,101.3159,4.663696,-87.33032,19.575,-7.258333,1.733333,1
94743,0.09130859,1.083496,0.01660156,-10.92529,-78.36914,11.59668,103.9691,4.526367,-93.59253,35.7,-84.44167,71.78333,1
95003,-0.03173828,0.8237304999999999,-0.15039059999999999,-8.483887,-16.47949,14.09912,101.8268,3.186035,-98.47046,14.28333,-3.941667,-2.091667,1
95253,0.04736328,0.9213867,-0.4321289,1.525879,0.3051758,-14.77051,100.827,5.39978,-98.1958,37.35,-86.16666,69.74167,1
95553,-0.22119139999999998,0.8979492,-0.08642578000000001,9.460449,-28.44238,-26.48926,101.8433,3.4002689999999998,-94.03748,14.3,-3.891667,-1.4,1
95853,0.03466797,0.9003905999999999,-0.2260742,14.22119,-19.47021,12.81738,101.5082,4.421997,-101.9861,38.74166,-85.79166,69.51667,1
96163,0.07666016,1.061035,-0.1367188,-12.75635,-52.97852,-5.92041,104.5294,6.009521,-109.5941,43.65833,-84.25833,69.26667,1
96433,-0.00390625,0.8583984,-0.2246094,-17.02881,-4.821777,6.469727,102.7222,3.636475,-111.6266,13.43333,-5.191667,-0.4666667,1
96723,0.05322266,1.395996,-0.3271484,9.94873,-4.455566,23.80371,102.8046,5.158081,-108.6548,17.43333,0.03333333,3.691667,1
96933,0.03955078,0.9179687999999999,-0.18261719999999998,7.080078,-13.30566,-7.995605,103.1616,3.938599,-104.2657,39.4,-85.2,70.11667,1
97163,-0.08203125,0.8041992,-0.2568359,-3.173828,-25.45166,18.49365,101.7883,4.383545,-105.7159,18.23333,-9.0,0.7083332999999999,1
97433,-0.15136719999999998,1.136719,-0.284668,31.31104,-4.943848,-11.35254,104.7272,4.746094,-107.6935,18.54167,-0.1333333,-2.458333,1
97643,0.1796875,0.9804687999999999,-0.190918,5.004883,36.68213,20.75195,102.7606,4.669189,-114.906,15.075,-3.133333,-3.075,1
97863,-0.10498049999999999,0.984375,-0.2539063,5.7983400000000005,-8.850098,-16.41846,102.0081,5.213013,-109.2755,42.65833,-86.71667,68.14167,1
98103,0.2919922,0.8354492,0.09375000000000001,11.53564,35.94971,-7.8125,102.7441,3.131104,-110.3137,18.9,-2.975,-1.266667,1
99533,-0.2080078,1.069336,-0.1606445,2.685547,11.65771,-2.502441,103.1836,1.620483,-112.4725,15.78333,-3.341667,1.575,1
99763,-0.030273440000000002,0.7885742,-0.2680664,-3.356934,-23.13232,17.51709,103.3539,4.037476,-115.2795,43.83333,-85.83334,69.43333,1
100013,0.07958984,1.168457,-0.1835938,-10.86426,-14.4043,-24.6582,105.9467,4.152832,-116.9659,20.25833,-1.558333,-1.25,1
100293,-0.048828130000000004,0.8491211,-0.22509769999999998,-5.737305,1.220703,15.19775,104.3097,2.9608149999999998,-124.9915,46.99166,-85.9,68.30833,1
100593,0.2675781,0.8798828,-0.6098633,12.45117,24.10889,-7.324219,104.0735,5.405273,-121.4813,13.866670000000001,1.916667,-3.966667,1
100893,-0.15136719999999998,0.8852538999999999,-0.1152344,9.70459,-15.01465,-17.63916,103.7878,3.059692,-117.1252,45.46667,-84.81667,70.26667,1
101193,0.01611328,0.9687500000000001,-0.2719727,16.05225,-5.187988,9.887695,103.3704,4.108887,-122.113,15.20833,-10.275,4.583333,1
101503,-0.02783203,1.152344,-0.10498049999999999,-26.12305,-64.94141,-1.8310549999999999,105.3699,4.746094,-128.6554,51.31667,-84.94167,66.36667,1
101803,0.2670898,0.8115234,-0.246582,-16.17432,-5.67627,-8.361816,101.4532,3.010254,-137.049,52.675,-87.23333,62.6,1
102113,-0.03808594,0.828125,0.08740234,7.080078,18.24951,-1.037598,101.283,3.268433,-135.0055,18.06667,-2.425,-1.108333,1
102353,-0.19775389999999998,0.8515625,-0.11621089999999999,5.7983400000000005,-19.77539,-11.96289,101.5302,4.378052,-130.589,14.46667,-4.416667,-1.483333,1
102573,0.03662109,1.00293,-0.3608398,15.38086,-23.98682,14.83154,101.8542,3.6804200000000002,-136.2744,52.875,-86.69167,62.4,1
102803,-0.1420898,1.114258,0.011230470000000001,9.216309,-62.98828,11.96289,103.678,4.284668,-140.0043,16.14167,-0.9333332999999999,1.0,1
103073,-0.1176758,0.8452147999999999,-0.1987305,-1.708984,18.85986,4.821777,102.8925,3.180542,-140.2899,14.23333,-3.658333,-0.5333333,1
103283,-0.10644529999999999,0.9199219,-0.33349609999999996,-1.464844,12.75635,-26.30615,103.1232,4.647217,-136.8951,15.6,-6.583333,-0.5,1
103504,0.2319336,0.8940429999999999,0.0034179690000000003,5.249023,16.8457,-21.05713,102.5134,4.389038,-136.9885,54.06667,-85.525,62.84167,1
103753,0.06884766,0.9135742,-0.19042969999999998,-4.394531,2.441406,-20.81299,100.3326,5.800781,-133.808,15.01667,-3.375,-3.416667,1
103993,-0.09277344,1.20166,-0.41894529999999996,21.97266,-0.6103516,15.19775,100.7886,4.334106,-135.5768,53.93333,-86.55833,61.075,1
104233,0.01660156,1.007813,0.01464844,-1.098633,-51.02539,11.47461,101.5137,4.685669,-141.6577,17.23333,-1.775,1.025,1
104523,0.2270508,0.8374022999999999,-0.2026367,-7.873535,-8.422852,-8.483887,100.7776,3.422241,-147.5244,57.225,-86.9,56.375,1
104823,-0.09375000000000001,1.080078,-0.1411133,15.50293,27.46582,10.00977,103.2935,4.482422,-144.1791,18.475,-1.233333,-1.216667,1
105124,-0.0859375,0.809082,-0.2246094,-15.50293,-26.42822,-2.502441,102.2058,6.102905,-144.201,58.74166,-84.975,57.025,1
105423,-0.11425779999999999,1.255371,-0.2719727,13.5498,-21.97266,8.178711,102.1179,2.625732,-151.5509,13.04167,-0.125,3.316667,1
105723,0.06982422,0.9545897999999999,-0.140625,0.12207029999999999,28.19824,6.164551,102.6947,2.883911,-156.5387,58.21667,-87.775,52.40833,1
106033,-0.0078125,1.053711,-0.3842773,-5.187988,-6.286621,-11.41357,102.5793,3.839722,-152.2705,58.91667,-86.9,53.08333,1
106303,0.2001953,0.9648437999999999,0.01660156,29.23584,53.03955,-15.68604,103.4308,2.488403,-151.1169,17.875,-2.425,0.44166669999999997,1
106593,-0.1689453,0.8447266,-0.24414059999999999,-11.16943,3.417969,0.6713867,103.0133,4.361572,-145.448,14.50833,-4.583333,-0.075,1
106783,0.06542969,0.9687500000000001,-0.4882813,3.662109,-12.69531,6.408691,103.5681,2.839966,-150.5182,17.51667,-4.925,1.875,1
106973,0.1132813,1.119629,-0.02050781,-0.8544921999999999,-62.5,-3.051758,104.6613,3.78479,-156.8738,17.98333,-3.558333,1.616667,1
107183,-0.03271484,0.8535155999999999,-0.1918945,-7.873535,8.789063,9.643555,104.4305,1.994019,-156.7474,13.6,-4.75,-1.441667,1
107393,-0.09667969,0.9121094,-0.2744141,3.601074,5.92041,-22.82715,104.0735,3.22998,-152.2925,16.65833,-7.458333,0.35833329999999997,1
107613,-0.1035156,1.200195,-0.1855469,-1.6479489999999999,45.59326,8.361816,104.7546,1.790771,-146.6949,55.71667,-86.36667,57.8,1
107853,-0.03515625,0.7685546999999999,-0.2558594,-17.21191,-2.868652,-11.16943,103.6285,4.471436,-146.5521,13.6,-4.558333,-1.116667,1
108133,-0.00390625,1.01709,-0.3706055,7.629395,-27.70996,13.97705,103.222,3.422241,-150.4742,27.21667,-3.975,3.0,1
108343,0.22216799999999998,0.9462891,-0.1264648,6.530762,0.24414059999999999,17.02881,104.0735,5.152588,-160.0104,58.93333,-87.43333,50.8,1
108583,0.1655273,0.8398437999999999,-0.2802734,-7.995605,13.42773,-13.85498,103.8922,2.8125,-157.6208,14.95,-4.608333,-1.025,1
108843,0.09277344,1.116211,-0.05175781,-5.615234,-5.615234,24.04785,103.7054,3.521118,-155.0665,57.40833,-87.30833,53.95833,1
109103,-0.2421875,0.9614258,-0.1196289,5.92041,-15.38086,-21.91162,103.3429,3.026733,-147.3212,15.15833,-4.266667,-2.175,1
109353,-0.05078125,0.9409179999999999,-0.2387695,10.92529,-18.49365,17.57813,102.0685,3.812256,-150.4413,56.7,-88.025,53.40833,1
109653,0.1674805,0.9511719,-0.05322266,-9.399414,-43.02979,-5.310059,102.9364,5.234985,-159.2743,15.625,-3.075,-0.2583333,1
109953,0.015136720000000001,0.8149413999999999,-0.296875,-0.42724609999999996,26.30615,-22.2168,101.8597,3.587036,-157.5714,57.93333,-88.74167,50.525,1
110264,0.1601563,0.8579102,0.06494141,32.95898,49.86572,-12.51221,102.9913,3.427734,-155.7751,56.45833,-88.91666,52.85,1
110533,0.0034179690000000003,0.9667969,-0.1674805,8.789063,-22.33887,-8.361816,103.255,4.119873,-152.7759,14.25833,-4.5,-0.9583332999999999,1
110813,0.1113281,0.9741211,-0.4995117,5.981445,-17.39502,10.0708,102.6123,3.718872,-158.7799,27.425,-3.158333,-1.508333,1
111033,0.2197266,0.9443359,-0.1171875,9.338379,27.46582,14.95361,101.9202,4.943848,-164.5807,58.725,-89.58334,47.96667,1
111263,0.19384769999999998,0.8120117,-0.23339839999999998,-11.16943,19.89746,-15.86914,100.882,3.35083,-161.5814,16.39167,-4.233333,1.375,1
111533,0.10839839999999999,1.17334,-0.3930664,9.94873,-4.821777,8.483887,102.2772,5.899658,-158.6206,16.13333,1.183333,2.633333,1
111744,-0.2675781,1.137695,-0.1733398,-0.4882813,6.591797,-3.417969,103.255,1.96106,-153.7042,16.125,-2.708333,0.9500000000000001,1
111963,0.0078125,0.8398437999999999,-0.21386719999999998,-4.02832,-17.21191,17.39502,101.8927,4.641724,-159.1974,57.73333,-89.24167,50.39167,1
112213,0.06542969,1.5698239999999999,-0.1796875,-2.563477,2.01416,-25.87891,104.7821,3.504639,-161.7957,18.95833,-0.3333333,2.358333,1
112453,-0.1152344,0.8271484,-0.21435549999999998,-5.371094,34.42383,5.67627,104.1504,3.938599,-163.7292,57.775,-89.23333,50.55,1
112693,-0.152832,0.8603516,-0.32568359999999996,0.1831055,21.1792,-21.05713,103.689,4.691162,-157.4231,16.6,-7.716667,-0.6166667,1
112983,-0.1098633,1.152832,-0.137207,-8.789063,53.10059,5.67627,103.9581,2.790527,-151.8146,55.35833,-87.81667,56.475,1
113283,-0.03271484,0.762207,-0.2802734,-3.234863,-25.26855,15.07568,103.1067,5.603027,-153.7427,17.94167,-7.466667,0.8,1
113583,-0.1992188,1.014648,-0.06494141,19.77539,-56.9458,5.981445,105.2216,5.74585,-161.6803,59.125,-88.05833,50.89167,1
113883,0.11621089999999999,0.8476562999999999,-0.3085938,-11.41357,23.62061,-18.73779,103.7878,4.306641,-160.7684,14.65,-5.208333,-0.3083333,1
114223,0.08447266,0.9750977,0.06103516,17.76123,56.27441,13.06152,104.068,4.504395,-157.5439,20.79167,-3.083333,0.05,1
114493,-0.04248047,0.7719727,-0.2890625,-12.26807,-21.97266,-5.249023,103.4912,5.707397,-158.692,58.79167,-87.19167,53.05833,1
115933,-0.006347656,0.8027344,-0.2924805,-0.9765625,-20.1416,17.39502,102.9309,3.383789,-157.0166,16.425,-9.258333,0.25,1
116283,0.22216799999999998,0.9018554999999999,-0.1699219,8.483887,19.59229,15.99121,105.7269,4.2462159999999995,-165.1849,59.94167,-85.65833,53.13334,1
116533,0.2045898,0.824707,-0.2958984,-13.67188,23.92578,-31.31104,105.4578,4.026489,-160.9387,16.925,-5.708333,0.9916666999999999,1
116783,0.32617189999999996,0.9873046999999999,-0.47314449999999997,23.13232,21.97266,-3.112793,106.0016,5.921631,-158.4174,14.66667,1.85,4.725,1
117003,-0.01757813,0.9477538999999999,-0.2734375,-4.577637,-60.18066,-2.807617,106.1169,4.630737,-158.2855,61.0,-83.6,55.08333,1
117273,0.1342773,0.8056641,-0.3520508,9.094238,-12.75635,22.70508,104.9908,4.394531,-166.5088,15.85,-9.491667,0.5750000000000001,1
117483,-0.03662109,1.42041,-0.2597656,0.0,-78.18604,21.05713,107.9956,5.712891,-172.0404,62.4,-84.94167,49.24166,1
117723,-0.08984375,0.7436522999999999,-0.35595699999999997,-19.47021,46.20361,3.723145,106.095,2.735596,-170.1782,13.65,-5.025,-1.2,1
118003,-0.105957,1.128418,-0.34912109999999996,4.943848,-1.8310549999999999,-16.8457,106.7157,5.641479,-163.8776,16.25833,-10.91667,4.041667,1
118233,-0.137207,1.239258,-0.2802734,-19.65332,30.94482,-2.197266,106.0785,2.883911,-158.9777,59.38334,-83.95,56.71667,1
118573,-0.07470703000000001,0.8051758,-0.2734375,-2.258301,-23.31543,23.98682,103.2166,5.152588,-164.1412,16.825,-7.983333,0.7833333,1
118833,-0.2719727,0.8959961,-0.01660156,20.38574,-7.507324,-18.37158,105.2985,5.234985,-166.5967,61.5,-84.96667,51.475,1
119103,0.10498049999999999,0.8354492,-0.3085938,-5.493164,12.08496,-18.24951,103.8702,3.746338,-164.0204,60.0,-85.59167,53.20833,1
119393,0.11865229999999999,0.9438477,-0.48974609999999996,-2.563477,-21.48438,3.112793,104.0131,6.773071,-163.1085,16.98333,-1.591667,4.325,1
119634,-0.1176758,0.8789062999999999,-0.17382809999999999,5.310059,-13.79395,-8.300781,104.3317,3.927612,-157.2638,59.09167,-84.5,56.35833,1
119913,0.15087889999999998,1.01709,-0.45800779999999996,6.835938,-9.033203,8.117676,103.4802,3.14209,-163.7457,58.71667,-86.49167,53.44167,1
120223,-0.2109375,0.9477538999999999,-0.06689453000000001,24.78027,-60.60791,10.13184,105.9576,4.795532,-167.2888,16.24167,-3.533333,-0.35000000000000003,1
120463,0.1533203,0.8198242,-0.3208008,-11.65771,23.55957,-19.104,104.4031,3.751831,-167.47560000000001,13.83333,-5.491667,-0.04166667,1
120773,0.01757813,0.9599609,-0.052734380000000004,24.71924,51.81885,13.73291,104.2273,4.251709,-163.6523,20.39167,-3.041667,-1.283333,1
121013,-0.09179688,0.8627929999999999,-0.1699219,5.615234,-19.22607,-9.277344,104.5239,3.960571,-158.5822,12.71667,-4.925,-1.6,1
121234,0.08496094,1.066406,-0.46582029999999996,9.58252,3.2958979999999998,5.554199,105.8038,3.422241,-164.328,58.69167,-85.43333,54.975,1
121503,-0.2319336,0.9936522999999999,-0.1044922,4.882813,-53.22266,-1.281738,107.4298,6.273193,-167.536,15.95,-4.75,0.05,1
121713,0.1552734,0.7978516,-0.33251949999999997,-13.85498,20.50781,-21.78955,105.304,4.064941,-165.8331,59.60833,-85.4,54.10833,1
121943,0.2202148,1.070801,-0.4331055,1.281738,5.126953,2.624512,105.0897,6.157837,-163.0811,15.275,-1.041667,1.05,1
122223,-0.2265625,1.238281,-0.34130859999999996,4.699707,2.319336,-10.68115,105.6665,1.8457029999999999,-155.3082,15.725,-3.625,-0.47500000000000003,1
122443,-0.1230469,0.7822266,-0.27001949999999997,-10.13184,-15.31982,-0.6103516,103.8757,4.960327,-157.9175,13.23333,-5.216667,0.775,1
122653,-0.09765625,0.840332,-0.09814453000000001,4.455566,-33.69141,0.9155272999999999,106.485,4.454956,-160.5597,58.88334,-84.38333,56.23333,1
122930,-0.06835938,0.8583984,-0.3149414,-18.55469,14.5874,5.310059,105.4468,3.422241,-166.1243,58.825,-85.7,54.54167,1
123203,-0.19726559999999999,1.050781,-0.3930664,-13.12256,-26.55029,-12.81738,104.5294,5.674438,-162.5427,24.51667,-4.75,0.65,1
123453,-0.33349609999999996,1.040527,-0.20556639999999998,14.5874,6.652832,-24.78027,103.6945,2.312622,-158.7689,57.3,-84.96667,56.95833,1
123753,0.0546875,0.8139647999999999,-0.2724609,3.356934,-21.42334,17.94434,102.8979,4.075928,-164.2291,15.70833,-9.008333,1.716667,1
124083,0.001464844,1.234375,-0.1054688,1.6479489999999999,-41.19873,-7.446289,105.9027,5.377808,-169.1235,16.18333,-3.441667,0.6833332999999999,1
124363,0.1289063,0.7612304999999999,-0.30224609999999996,-8.361816,25.6958,-23.92578,104.3811,3.834229,-164.2017,58.79167,-84.95834,54.9,1
124633,0.190918,1.012207,-0.5830078,15.56396,10.31494,2.685547,105.1007,6.317139,-162.8119,14.28333,2.116667,2.591667,1
124873,-0.078125,0.9116211,-0.19824219999999998,6.408691,-21.91162,-17.7002,103.9526,2.642212,-159.494,57.275,-84.975,56.19167,1
125233,0.1518555,1.039063,-0.4448242,8.789063,-0.6103516,5.554199,102.8815,3.416748,-164.0204,26.96667,-3.15,-1.408333,1
125464,0.1879883,0.9677734,-0.1123047,9.58252,5.615234,11.96289,102.5409,6.3555909999999995,-171.4197,60.16667,-85.775,50.15833,1
125693,0.2026367,0.8129883,-0.28564449999999997,-3.540039,16.90674,-10.68115,102.8375,4.317627,-168.5303,14.93333,-6.025,-0.225,1
125943,-0.001464844,1.01123,0.01416016,-13.91602,-1.525879,36.49902,103.5846,4.2462159999999995,-166.8549,58.83333,-85.74167,53.00834,1
126173,-0.1772461,0.9833984,-0.1777344,6.103516,-11.96289,-19.104,104.1174,2.971802,-161.2958,13.75,-5.15,-1.858333,1
126453,-0.1518555,0.7416992,-0.2387695,-13.97705,-14.03809,10.92529,102.7057,4.570313,-163.2458,17.375,-6.208333,2.058333,1
126673,-0.22998049999999998,1.290039,-0.4160156,32.95898,18.9209,-2.929688,105.3589,2.938843,-165.976,14.741670000000001,0.5166666999999999,4.416667,1
126883,0.06103516,0.8471679999999999,-0.1362305,-6.896973,36.86523,4.577637,105.0513,4.015503,-167.7777,58.41667,-85.7,53.725,1
127123,-0.2304688,0.8784179999999999,-0.3681641,-2.563477,25.81787,-23.25439,105.4303,4.251709,-160.4004,14.65,-8.633333,-1.8333329999999999,1
127373,0.152832,0.9785155999999999,-0.1533203,-6.286621,27.83203,5.7983400000000005,104.9579,1.082153,-157.5604,15.83333,-2.541667,2.683333,1
127683,-0.06005859,0.8051758,-0.2592773,-11.96289,-6.408691,14.28223,103.8263,4.367065,-161.2299,57.575,-85.65833,54.85,1
127983,-0.07128906,0.8964844,0.02783203,34.79004,-31.18896,-4.577637,105.8313,5.031738,-165.097,15.85833,-3.208333,-2.1,1
128303,0.07763672,0.8164062999999999,-0.2993164,-4.943848,1.159668,-4.760742,105.0128,3.652954,-168.0414,14.725,-6.7,0.1166667,1
128583,-0.06884766,1.35498,-0.04833984,-47.18018,-11.96289,43.09082,105.8807,4.345093,-166.0803,58.45,-85.7,54.35,1
128863,-0.1889648,0.9350586,-0.2104492,17.33398,-16.72363,-23.25439,104.6942,2.565308,-161.4111,13.28333,-4.983333,-1.633333,1
129103,0.06982422,1.018555,-0.4135742,10.49805,-5.065918,10.0708,104.0295,3.279419,-165.8112,58.125,-85.91666,53.9,1
129443,0.13134769999999998,0.9394530999999999,-0.1728516,18.24951,0.42724609999999996,17.51709,105.9302,5.993042,-169.1345,14.3,-4.266667,-0.9583332999999999,1
129673,0.1293945,0.7890625,-0.30908199999999997,-15.13672,24.78027,-25.75684,104.8041,3.850708,-166.2341,15.075,-5.958333,0.6166667,1
129863,0.24072269999999998,0.9433594,-0.5429688,7.385254,6.9580079999999995,-8.300781,104.6118,6.943359,-164.2676,14.68333,-0.06666667,1.266667,1
130073,-0.21435549999999998,1.279297,-0.2192383,-8.300781,-7.629395,10.37598,104.6393,2.318115,-161.1969,15.3,-2.883333,1.766667,1
130293,-0.0004882813,0.7895508,-0.2617188,-7.751465,-28.07617,21.1792,102.6617,5.141602,-173.4302,60.725,-86.51667,48.2,1
130533,-0.06835938,1.828613,-0.09472656,-10.00977,-15.93018,-14.28223,104.826,3.120117,-175.8527,17.7,-2.441667,1.9583329999999999,1
130773,-0.1621094,0.8867187999999999,-0.2646484,-12.3291,57.86133,0.6103516,104.8425,3.674927,-175.2539,60.325,-86.5,49.55,1
132193,0.1811523,0.8149413999999999,-0.3081055,-12.08496,22.03369,-20.56885,105.1501,4.020996,-168.0249,60.11666,-84.90833,54.01667,1
132433,0.2436523,0.8867187999999999,-0.5356445,2.868652,2.258301,-4.455566,105.6006,6.817017,-165.0696,15.28333,1.658333,3.108333,1
132723,-0.05908203,0.8842772999999999,-0.2348633,5.004883,-23.74268,-6.103516,105.4468,4.312134,-160.7574,59.31667,-83.875,57.08333,1
133023,0.078125,0.9624022999999999,-0.4692383,8.239746,6.103516,9.521484,103.8867,3.488159,-166.2891,26.29167,-4.808333,1.691667,1
133323,0.3149414,0.9521484,-0.1479492,-9.765625,-8.666992,4.577637,104.3811,5.817261,-172.5293,61.3,-85.40833,51.725,1
133623,-0.09472656,0.8242187999999999,-0.2919922,-4.272461,24.59717,-26.9165,103.1396,4.801025,-164.9982,15.73333,-7.858333,0.3416667,1
133953,0.2163086,0.9741211,-0.03564453,21.54541,40.77148,11.96289,106.4026,2.389526,-162.4768,16.94167,-4.25,1.516667,1
134223,-0.1279297,0.8149413999999999,-0.34179689999999996,-10.25391,-24.4751,14.5874,104.9744,5.064697,-164.9872,60.7,-84.88333,54.41667,1
134503,-0.4023438,1.006348,-0.6899413999999999,50.29297,-1.098633,0.6713867,107.6221,3.279419,-167.4152,13.63333,1.166667,4.691667,1
134743,0.1235352,0.8647461,-0.21777339999999998,4.455566,47.54639,3.173828,105.4907,5.152588,-173.0347,62.05,-85.525,52.40833,1
135083,-0.175293,0.9492187999999999,-0.39501949999999997,-8.911133,-16.35742,-5.92041,104.5239,6.789551,-163.7457,27.75,-4.491667,2.091667,1
135333,-0.31835939999999996,0.9863280999999999,-0.2124023,-5.7983400000000005,8.056641,-23.80371,103.8428,2.48291,-159.5984,59.64167,-85.475,57.65833,1
135563,-0.11474609999999999,0.8417969,-0.2929688,-7.751465,-10.62012,7.69043,102.8925,5.696411,-161.3782,13.90833,-4.666667,1.883333,1
135804,0.3198242,0.7910155999999999,0.09033203000000001,-13.67188,-45.71533,-16.96777,105.2765,4.943848,-167.6953,62.575,-85.58334,53.675,1
136043,0.1679688,0.9052734,-0.1762695,1.708984,24.35303,8.972168,105.0458,5.581055,-172.8589,14.21667,-6.05,-1.633333,1
136323,0.05371094,0.8271484,-0.33251949999999997,-8.728026999999999,26.55029,-20.87402,104.1394,4.290161,-168.5083,17.04167,-6.433333,-0.5416667,1
136543,0.1015625,1.62793,-0.1689453,-10.98633,-1.89209,19.71436,105.0073,6.047974,-167.3053,18.3,-1.808333,3.266667,1
136753,0.06152344,0.9082030999999999,-0.2739258,-14.22119,-53.6499,-3.2958979999999998,105.2161,3.565063,-165.7617,62.40833,-86.14167,53.975,1
136993,0.1210938,0.8354492,-0.4174805,14.89258,-9.94873,20.01953,103.9966,3.619995,-173.4741,13.70833,-10.29167,0.8583333999999999,1
137244,0.03076172,1.435547,-0.1733398,-38.33008,-49.1333,-12.02393,105.9247,6.707153,-178.9838,16.79167,-2.691667,-0.2833333,1
137553,0.03857422,0.8315429999999999,-0.3476563,-5.981445,25.5127,-23.19336,104.1229,4.581299,-172.2491,63.96667,-85.425,50.81667,1
137853,-0.01904297,0.9086913999999999,0.07714844,55.60303,22.58301,36.25488,105.4303,3.328857,-167.6569,61.2,-85.65833,54.925,1
138113,-0.03515625,0.9741211,-0.2382813,-0.3051758,-38.33008,-1.6479489999999999,105.249,3.933105,-166.1627,12.34167,-4.625,-1.308333,1
138363,-0.1533203,0.9765625,-0.5249022999999999,9.338379,0.3051758,6.04248,104.8755,2.5872800000000002,-171.7108,62.05833,-85.83334,51.625,1
138673,0.1694336,0.9223633,-0.21289059999999999,1.6479489999999999,42.96875,10.37598,105.1392,5.119629,-175.4187,14.66667,-5.008333,-2.341667,1
138973,-0.09228516,1.024414,-0.3129883,3.90625,-25.39063,-3.2958979999999998,105.0787,5.619507,-166.756,63.95833,-83.36667,52.725,1
139313,-0.2026367,1.090332,-0.24414059999999999,-26.12305,31.73828,-11.16943,104.837,1.6754149999999999,-162.2681,17.41667,-4.383333,1.2,1
139543,-0.08935547,0.7104492,-0.2832031,0.6713867,-14.70947,-7.568359,104.024,6.256714,-165.5695,13.84167,-5.408333,0.125,1
139743,-0.01855469,0.9394530999999999,-0.5698242,18.49365,-10.37598,1.6479489999999999,105.5457,4.641724,-169.4641,19.5,-3.65,-4.391667,1
139943,-0.002929688,1.295898,-0.1254883,-10.13184,-47.85156,-11.90186,106.6663,8.223267,-173.6993,16.8,-4.1,-0.1166667,1
140163,0.05761719,0.7812500000000001,-0.3125,-5.737305,27.46582,-24.16992,103.3759,5.993042,-170.0464,64.5,-83.19167,52.51667,1
140393,0.21728519999999998,1.341309,-0.4316406,21.54541,19.53125,7.629395,104.4141,7.959595,-171.134,14.925,0.2083333,4.275,1
140643,-0.24462889999999998,1.018066,-0.22558589999999998,1.89209,-8.239746,-19.71436,104.6777,3.922119,-166.0034,16.74167,-4.575,0.5416667,1
140863,0.006347656,0.8295897999999999,-0.37207029999999996,0.5493163999999999,-19.65332,16.29639,104.1559,6.278687,-174.007,64.825,-84.0,50.84167,1
141143,0.05761719,0.8476562999999999,-0.06982422,20.81299,-31.67725,-19.59229,105.5072,6.734619,-175.0891,20.6,-2.375,-2.825,1
141373,0.1879883,0.8886719,-0.18652339999999998,1.403809,40.1001,8.178711,104.3976,7.223511,-179.9231,12.51667,-4.658333,-1.3333329999999999,1
141593,-0.1630859,1.042969,-0.4780273,-4.333496,-18.85986,-1.281738,106.2268,7.915649,-168.4424,24.04167,-2.466667,-1.0,1
141873,-0.2519531,0.9179687999999999,-0.25537109999999996,1.281738,-25.32959,-18.85986,105.4742,4.619751,-165.9265,62.90833,-82.80833,57.875,1
142133,-0.060546880000000004,0.7709961,-0.2807617,-9.82666,-50.04883,23.31543,102.4091,7.245483,-174.5288,16.4,-4.691667,0.3333333,1
142404,0.21435549999999998,0.6889647999999999,0.0859375,9.70459,-28.07617,-20.81299,103.6615,5.570068,-178.5498,22.0,-3.133333,-3.958333,1
142683,-0.0859375,0.7685546999999999,-0.3237305,-10.80322,9.094238,3.4790039999999998,104.5624,4.801025,177.0227,65.56667,-85.50833,48.85833,1
142963,-0.2583008,1.039551,-0.3271484,-9.765625,-10.68115,-4.882813,104.881,6.855469,-177.8247,19.33333,-8.941667,2.625,1
143203,-0.1796875,1.104492,-0.24853519999999998,3.173828,17.08984,-21.30127,104.5679,2.37854,-169.3817,62.95,-84.05,57.34167,1
143543,0.01171875,0.746582,-0.33398439999999996,7.507324,-17.08984,16.78467,103.5242,5.20752,-174.2706,16.64167,-8.541667,0.5666667,1
143793,0.08789063,1.191895,-0.11279299999999999,-17.82227,-53.03955,-12.75635,106.1719,7.805786,178.5443,67.525,-83.24167,50.26667,1
144024,-0.04785156,0.8471679999999999,-0.3061523,-8.605957,33.02002,12.08496,105.3369,4.471436,179.8022,13.6,-5.266667,-0.3833333,1
144273,0.2353516,0.8295897999999999,-0.5893554999999999,-1.7700200000000001,27.22168,-5.249023,104.9524,7.322388,-173.1995,65.66666,-82.25,56.325,1
144503,0.13134769999999998,1.222168,-0.3144531,-14.16016,33.38623,3.662109,105.4248,3.609009,-167.7722,14.45,-3.375,0.7333333,1
144773,0.03955078,0.7895508,-0.2807617,-19.16504,-33.3252,-12.39014,103.0737,7.36084,-171.0022,12.90833,-4.375,0.0,1
145003,-0.02929688,1.089355,-0.47460939999999996,21.48438,-0.9765625,5.065918,104.6338,5.668945,-174.6442,23.13333,-7.525,3.891667,1
145223,0.265625,0.9589844,-0.15039059999999999,-2.197266,-26.7334,8.605957,104.068,8.503418,176.3361,14.34167,-3.825,-0.2833333,1
145483,0.171875,0.7861328,-0.2324219,-15.93018,24.16992,-11.23047,102.5958,5.366821,-179.4452,14.925,-5.666667,0.125,1
145693,-0.17871089999999998,1.187012,-0.06298828000000001,-31.61621,-17.02881,39.24561,102.6288,6.745605,-177.2205,65.28333,-84.13333,54.43333,1
145943,-0.2075195,0.9306641,-0.1757813,9.460449,-22.58301,-10.86426,103.6725,5.136108,-171.2604,14.025,-4.991667,-1.9583329999999999,1
146223,-0.1020508,1.008301,-0.3208008,14.46533,-22.2168,16.11328,102.4146,5.119629,-178.0334,64.025,-85.85833,53.275,1
146523,0.1333008,0.8647461,-0.04345703,-18.43262,-49.80469,0.24414059999999999,103.4583,5.927124,175.8527,16.90833,-3.766667,-0.2583333,1
146843,0.07470703000000001,0.8774413999999999,-0.24462889999999998,-2.075195,15.56396,-14.83154,101.3544,4.268188,174.4684,15.15,-5.183333,0.0,1
147133,-0.05957031,1.20459,-0.24853519999999998,0.3051758,0.6713867,7.568359,102.9034,8.470459,176.5393,16.25833,-2.333333,3.1,1
148603,0.1401367,1.034668,-0.2436523,-2.258301,-59.81445,9.94873,99.81079,-1.098633,93.46069,16.425,-4.316667,-0.35000000000000003,1
148883,0.12207029999999999,0.9584961,-0.246582,-16.78467,-47.42432,15.01465,98.04199,-4.147339,79.18396,15.60833,-4.283333,-1.608333,1
149093,0.1445313,0.9062500000000001,-0.246582,-4.882813,-11.59668,-10.92529,96.78406,-3.949585,72.92725,15.25833,-6.133333,1.091667,1
149313,0.04345703,0.949707,-0.08496094,18.67676,1.220703,-5.310059,99.33289,-1.3348389999999999,73.98743,26.275,-96.50833,3.85,1
149543,-0.1201172,1.068359,-0.2182617,17.76123,-54.01611,-3.356934,101.2939,-0.14282229999999999,72.81738,16.71667,-4.125,-0.2333333,1
149813,-0.1157227,0.9565429999999999,-0.2324219,-11.04736,-83.6792,11.96289,100.2283,1.933594,59.46899,15.575,-4.458333,-0.65,1
150033,0.01757813,0.934082,-0.4243164,3.540039,-68.0542,22.27783,99.73389,-0.14282229999999999,38.25989,3.141667,-93.99167,11.325,1
150273,-0.203125,1.096191,-0.1616211,26.55029,-66.95557,17.63916,100.437,-0.5987549,26.81213,16.78333,-0.7666666999999999,-2.2,1
150523,0.1420898,1.006348,-0.2109375,-2.441406,-38.45215,31.73828,99.55811,-2.032471,8.706665,15.76667,-3.416667,-2.391667,1
150733,0.1381836,0.9160155999999999,-0.2558594,-4.760742,-5.065918,-13.12256,98.06946,-3.845215,-4.295654,-13.225,-86.76667,32.025,1
150973,-0.1201172,11.47559,-2.438477,-3.356934,1.89209,12.87842,98.86047,-2.471924,-2.488403,15.65833,-0.3916667,3.583333,1
151263,-0.06396484,1.019531,-0.1303711,16.96777,-33.14209,-11.53564,98.45947,-0.9997558999999999,-2.2796629999999998,-11.1,-88.8,32.50834,1
151533,-0.06933594,0.9277344,-0.2231445,-1.159668,-7.69043,9.033203,98.42102,1.252441,-4.070435,-10.70833,-88.875,33.21667,1
151823,-0.02783203,1.267578,-0.2963867,3.4790039999999998,-30.57861,-3.845215,100.5634,0.0,-7.970581,16.08333,-2.025,3.608333,1
152073,0.1137695,1.021973,-0.1137695,12.20703,-16.96777,12.81738,101.2061,-0.1318359,-16.86401,-13.725,-84.48333,44.29167,1
152343,0.06396484,0.9008788999999999,-0.24951169999999998,-10.62012,15.99121,-11.53564,100.8655,-2.631226,-20.14343,-14.475,-83.425,44.41667,1
152653,0.1293945,1.172363,-0.3286133,0.06103516,29.96826,-8.850098,100.9589,-0.4998779,-16.22681,15.21667,-2.233333,1.008333,1
152893,-0.17431639999999998,1.029785,-0.07519531,10.37598,-3.051758,-6.713867,99.27246,-0.04394531,-9.18457,16.525,-2.058333,0.08333334,1
153204,-0.06445313,0.949707,-0.21386719999999998,-4.760742,6.774902,2.075195,99.70642,3.208008,-5.921631,15.75,-3.975,-0.15833329999999998,1
153443,-0.048828130000000004,0.9604492,-0.3920898,4.394531,-27.22168,17.08984,100.1898,1.5325929999999999,-7.119141,23.775,-4.158333,-2.05,1
153663,0.2324219,0.9306641,0.04638672,-3.845215,-17.08984,0.06103516,99.09119,1.268921,-15.77087,-13.075,-85.925,40.44167,1
153893,0.1342773,0.9267578,-0.08642578000000001,-11.47461,13.12256,6.530762,99.86023,-0.9613037,-13.21106,16.425,-3.816667,0.1666667,1
154143,0.07177734,0.9785155999999999,-0.2397461,-1.037598,38.20801,-16.41846,99.60754,-0.1318359,-4.75708,-12.85,-86.50833,31.79167,1
154383,0.1811523,0.8959961,-0.01367188,19.04297,-0.9155272999999999,-8.361816,98.97034,-0.8294678,-0.5987549,15.79167,0.275,-1.433333,1
154663,-0.05810547,0.9687500000000001,-0.09082031,24.04785,-9.460449,-15.13672,100.3107,0.637207,5.630493,15.63333,-1.7083329999999999,-1.125,1
154873,-0.1381836,0.8813477,-0.1928711,-1.953125,0.06103516,-1.525879,100.7446,3.087158,7.509155,14.525,-3.966667,0.9,1
155083,0.08056641,1.435059,-0.24414059999999999,-10.00977,-1.342773,-34.60693,102.9639,2.455444,3.636475,-10.23333,-88.65833,29.08333,1
155333,0.2573242,0.9667969,-0.01660156,1.098633,-30.63965,3.78418,102.5958,2.6971439999999998,-4.570313,15.26667,-2.9,0.008333334000000001,1
155573,-0.026367190000000002,0.9038086,-0.2734375,-8.483887,20.38574,-15.44189,101.3928,0.1208496,-7.168579,17.21667,-4.216667,-1.05,1
155883,0.14257809999999999,0.9052734,-0.04345703,5.554199,12.81738,-24.10889,99.90967,1.027222,-3.416748,-11.35833,-87.23333,31.03333,1
156183,0.002441406,0.918457,-0.12744139999999998,-4.638672,13.91602,-14.64844,101.283,4.0979,1.038208,-9.233334,-89.08334,29.55,1
156453,-0.06640625,0.9072266,-0.20947269999999998,-1.6479489999999999,4.333496,8.850098,101.5466,4.042969,2.307129,15.675,-5.241667,1.416667,1
156703,-0.1777344,0.8994141,0.03613281,39.12354,8.972168,3.417969,104.1504,3.24646,-1.3348389999999999,-11.53333,-86.88333,34.95833,1
157023,-0.01660156,0.9506836,-0.1870117,-18.61572,-12.20703,7.141113,102.6233,0.9997558999999999,-4.526367,15.30833,-3.558333,-1.075,1
157343,0.0234375,0.9868163999999999,-0.3071289,-0.1831055,35.5835,-11.71875,101.239,2.686157,0.32409669999999996,25.50833,-3.533333,-2.216667,1
157543,0.190918,0.8461913999999999,0.05517578,-0.9765625,47.66846,-24.78027,101.4203,1.906128,4.251709,17.325,-0.35833329999999997,2.366667,1
157773,-0.1552734,0.9399413999999999,-0.1733398,0.1831055,3.540039,-5.187988,103.3264,4.290161,8.162842,-7.475,-89.14167,26.65,1
158003,-0.09423828000000001,0.9599609,-0.22509769999999998,-5.249023,-13.67188,14.03809,102.8925,3.273926,6.026001,20.775,-5.333333,0.15,1
158273,0.02294922,0.8852538999999999,-0.05566406,-16.11328,11.84082,-0.6713867,100.3436,3.757324,3.603516,17.73333,0.5083333,-3.425,1
158493,-0.01171875,0.8896484,-0.05224609,1.89209,-25.32959,9.216309,97.05872,0.8843994,-4.504395,-12.5,-84.13333,31.90833,1
158733,0.02832031,0.9345703,-0.1474609,-3.540039,0.3662109,-16.05225,97.99255,0.4724121,-6.800537,16.69167,-3.066667,-0.06666667,1
158983,-0.004394531,1.096191,-0.24902339999999998,-1.8310549999999999,31.49414,-15.93018,98.47595,3.609009,-3.240967,21.09167,-1.925,-3.241667,1
159193,-0.1914063,0.9375,0.1318359,-7.568359,9.643555,-2.258301,93.71887,4.768066,0.4284668,-8.066667,-87.56667,25.53333,1
159433,-0.10498049999999999,0.9702147999999999,-0.02685547,9.643555,6.835938,-9.399414,93.66943,6.240234,-0.4888916,15.9,-1.525,1.308333,1
159723,-0.011230470000000001,0.9130859,-0.2402344,26.36719,-5.004883,13.67188,98.39355,4.3396,-0.5493163999999999,-8.866667,-87.25,30.925,1
159993,0.1889648,0.9575195,-0.022460940000000002,-16.17432,-48.82813,-1.525879,101.4972,3.856201,-8.519897,-9.766666,-86.45,37.35,1
160283,0.06103516,0.890625,-0.15625,-8.361816,-26.24512,8.483887,101.4972,1.356812,-12.15637,15.35,-4.133333,-0.8666667,1
160533,0.02539063,1.188477,-0.28125,-3.173828,30.15137,-7.629395,100.7062,2.883911,-9.656982,-9.908334,-86.30833,35.84167,1
160803,-0.1518555,0.9614258,-0.01806641,6.286621,23.92578,0.9765625,99.8877,2.763062,-0.04394531,-8.333333,-88.00833,30.075,1
161113,-0.09082031,0.953125,-0.1489258,3.4790039999999998,20.44678,-12.20703,102.2607,4.932861,2.043457,16.125,-3.358333,0.2833333,1
161353,-0.06640625,0.9829102,-0.3295898,5.249023,-15.99121,10.98633,103.3704,3.7133789999999998,2.993774,17.86667,-5.825,1.35,1
161663,-0.1577148,1.02832,-0.04199219,-0.4882813,-43.02979,23.13232,103.8702,2.999268,-2.043457,16.23333,-1.008333,1.591667,1
161903,-0.05957031,0.9267578,-0.2045898,6.9580079999999995,-10.74219,11.59668,103.678,2.070923,-6.377563,15.375,-2.558333,-1.108333,1
162123,0.1533203,0.9604492,-0.2841797,-3.173828,29.11377,-15.38086,102.6782,2.702637,-4.257202,-8.441667,-88.375,32.925,1
162363,-0.3115234,1.289551,-0.22558589999999998,-29.78516,-13.61084,33.02002,100.8105,1.636963,2.894897,15.33333,-0.48333329999999997,0.8250000000000001,1
162603,0.06201172,1.020996,-0.1362305,13.61084,-5.065918,-17.63916,102.0795,2.351074,7.679443,-6.308333,-89.825,26.09167,1
162843,-0.04931641,0.9033203,-0.19775389999999998,4.211426,-7.995605,-3.356934,103.5956,4.822998,8.074951,15.11667,-4.433333,0.6166667,1
163123,-0.04931641,1.021484,-0.3588867,9.338379,-28.9917,13.06152,105.2765,3.696899,4.910889,16.85,-6.208333,1.858333,1
164503,-0.07373047,0.9428711,-0.1035156,4.333496,19.22607,-15.07568,98.83301,4.65271,0.4724121,15.28333,-2.875,0.375,1
164763,-0.08349609,0.9848633,-0.32519529999999996,17.63916,-3.540039,9.70459,102.0081,3.383789,3.609009,-6.808333,-89.96667,29.23333,1
165020,0.12207029999999999,0.9116211,-0.03222656,-20.01953,-57.61719,4.638672,104.079,3.4552,-3.938599,-7.716667,-89.025,35.30833,1
165323,0.03955078,0.980957,-0.16650389999999998,-15.56396,-6.225586,3.723145,103.4967,1.653442,-4.718628,15.6,-3.6,-0.325,1
165563,0.044921880000000004,0.9423828,-0.2841797,-2.197266,35.33936,-15.07568,101.4313,2.8125,2.005005,18.44167,-5.8,0.775,1
165843,0.125,0.8740234,0.048828130000000004,-7.019043,46.14258,-7.141113,101.3049,2.521362,8.371582,-4.633333,-89.61667,24.075,1
166143,-0.006835938000000001,0.9628905999999999,-0.1323242,-12.39014,-16.47949,-16.72363,102.2552,4.081421,7.77832,15.75833,-2.758333,-1.075,1
166393,-0.06445313,0.9145508,-0.3085938,6.530762,-25.08545,16.17432,100.6732,4.394531,3.894653,24.69167,-4.975,0.1083333,1
166663,0.0859375,0.9516602,0.02539063,-7.873535,-63.47656,1.8310549999999999,100.8545,4.207764,-8.887939,-6.908333,-88.35,35.50834,1
166973,0.1181641,0.9477538999999999,-0.2163086,-4.516602,11.96289,-6.774902,100.2393,2.301636,-14.50745,15.73333,-3.525,-1.433333,1
167203,0.04199219,0.9443359,-0.28613279999999996,-3.417969,36.62109,-13.5498,99.47571,4.103394,-10.51392,22.76667,-5.35,-0.65,1
167423,0.19042969999999998,0.8881836,0.08398438,35.21729,4.882813,-4.516602,99.78882,2.675171,-4.515381,15.91667,-0.3833333,-1.35,1
167643,-0.03222656,0.9057617,-0.1201172,6.04248,-3.845215,-13.48877,102.9913,4.669189,0.2252197,-4.133333,-90.06667,29.9,1
167873,-0.052734380000000004,0.9350586,-0.2470703,1.708984,-13.30566,10.19287,103.6066,4.976807,-2.334595,-5.825,-88.78333,34.5,1
168183,-0.1137695,1.004395,-0.11474609999999999,34.05762,-26.48926,7.873535,105.8423,4.883423,-11.50269,-6.4,-87.79166,40.5,1
168423,0.08789063,1.004395,-0.2641602,2.929688,12.26807,19.83643,105.5621,4.306641,-16.60583,16.35833,-4.083333,-1.75,1
168643,0.08203125,0.9003905999999999,-0.2602539,-6.347656,4.455566,0.1831055,104.024,1.82373,-18.38562,15.575,-5.141667,-0.725,1
168873,0.06103516,1.050293,-0.3383789,3.112793,22.58301,-3.540039,103.0518,2.713623,-13.74939,-7.466667,-87.20834,37.875,1
169123,0.1762695,0.9228516,-0.01611328,-16.17432,68.2373,-25.08545,102.6398,3.164063,-8.388062,15.125,-2.516667,1.8,1
169383,-0.17871089999999998,0.9418945,-0.2231445,-4.02832,3.417969,-5.737305,103.5461,5.350342,1.296387,-3.108333,-90.75833,29.25833,1
169683,-0.04150391,1.367188,-0.3671875,-0.5493163999999999,-37.96387,-0.12207029999999999,102.9584,3.609009,-5.322876,15.8,-0.5750000000000001,3.916667,1
169983,0.1499023,1.001465,-0.1494141,15.25879,21.66748,14.52637,101.4642,3.317871,-12.06848,-7.275,-87.36667,35.31667,1
170283,-0.030273440000000002,0.9086913999999999,-0.2724609,-4.882813,7.568359,-16.6626,100.7996,2.043457,-9.365845,-6.816667,-87.89167,32.70833,1
170553,-0.1533203,1.494141,-0.2983398,-5.187988,-6.164551,25.08545,101.2445,3.339844,-6.366577,14.18333,1.5833329999999999,2.791667,1
170803,0.06347656,0.9926758,-0.1308594,15.80811,-9.887695,-21.42334,102.0081,2.548828,-3.109131,-4.875,-89.16666,30.05,1
171103,-0.12060549999999999,0.9438477,-0.24414059999999999,3.601074,-14.83154,14.89258,102.3871,3.548584,-2.790527,16.36667,-7.425,1.241667,1
171443,-0.0546875,1.085938,0.01025391,-1.159668,-39.61182,10.92529,103.0133,3.630981,-10.16235,16.14167,-0.36666669999999996,0.275,1
171653,0.005371094000000001,0.9418945,-0.1611328,3.234863,13.73291,11.71875,102.2223,2.235718,-12.55188,15.69167,-2.15,-2.033333,1
171873,0.06640625,0.9414062999999999,-0.2431641,-9.765625,16.41846,-15.31982,100.2063,2.6971439999999998,-9.700928,-6.083333,-88.075,31.96667,1
172103,-0.1450195,1.228027,-0.2338867,-4.272461,20.56885,-2.746582,99.82727,3.856201,-3.098145,15.025,0.625,4.025,1
172373,-0.02685547,0.9995117,-0.01220703,-13.5498,73.42529,-6.530762,99.29993,2.69165,-0.07141113,16.175,-1.266667,2.008333,1
172593,-0.048828130000000004,0.9155272999999999,-0.2158203,3.356934,-20.20264,1.220703,101.3269,5.158081,-1.400757,-2.883333,-90.1,27.90833,1
172833,0.03564453,0.9692383,-0.39501949999999997,8.972168,-35.52246,17.45605,102.2058,3.691406,-6.899414,24.19167,-3.875,-3.35,1
173083,-0.2402344,1.151367,-0.01855469,12.57324,-48.15674,19.83643,103.0627,4.081421,-10.32715,16.16667,0.5916667,-0.8250000000000001,1
173293,0.1962891,0.9160155999999999,-0.1289063,-14.83154,-11.41357,12.75635,101.3873,1.862183,-17.78137,-7.525,-86.425,37.325,1
173533,0.08544922,0.9614258,-0.2719727,-3.967285,10.68115,-20.62988,101.1401,2.872925,-15.66101,16.60833,-5.408333,-0.1333333,1
173823,0.32519529999999996,0.887207,0.046875,22.82715,7.751465,-13.18359,100.849,2.021484,-13.78235,-5.816667,-88.03333,32.64167,1
174093,-0.09130859,0.9116211,-0.15039059999999999,2.380371,21.42334,-17.94434,102.5629,4.108887,-4.801025,-3.283333,-90.0,30.1,1
174563,0.10058589999999999,0.9951171999999999,-0.2460938,8.300781,21.54541,-27.9541,102.7112,4.746094,-9.266968,18.59167,0.4,0.08333334,1
174843,-0.04589844,0.8989258,-0.175293,-5.126953,-18.24951,16.54053,101.7554,2.735596,-16.05652,15.45,-2.591667,-1.675,1
175123,0.1054688,0.9926758,-0.2353516,2.746582,13.67188,-11.84082,100.2722,3.109131,-18.08899,-5.85,-87.975,34.88334,1
175393,0.09130859,0.8701171999999999,0.05078125,17.57813,10.49805,-4.699707,100.8215,1.543579,-15.22705,16.55,-0.25,-1.191667,1
175633,0.05078125,0.9291992,-0.1567383,-3.173828,17.82227,-15.80811,103.7549,3.7683109999999997,-6.992798,16.45833,-3.116667,-0.5666667,1
175973,-0.02441406,0.9506836,-0.38037109999999996,14.09912,-14.34326,11.84082,104.8975,3.7683109999999997,-8.278198,23.50833,-5.883333,0.55,1
176223,0.07080078000000001,0.9746094,-0.08300781,-3.417969,-45.95947,3.4790039999999998,105.9357,4.553833,-15.19958,-4.891667,-88.55833,38.85,1
176453,0.056640630000000004,0.9487304999999999,-0.22509769999999998,-12.3291,-8.666992,7.507324,105.4138,2.6971439999999998,-18.45703,15.475,-4.85,-1.65,1
176703,-0.03515625,0.9550780999999999,-0.3828125,-6.713867,15.74707,-11.41357,102.5684,4.015503,-14.29871,-4.891667,-88.98333,34.76667,1
176933,0.1518555,0.7958984,0.05712891,6.408691,33.38623,-13.42773,102.1564,2.504883,-9.547119,17.31667,-1.8666669999999999,1.516667,1
177213,0.07568359,0.9853516,-0.1357422,2.441406,-4.577637,-20.87402,102.9694,3.625488,-7.229004,15.7,-3.433333,0.35000000000000003,1
177433,-0.011230470000000001,0.8955078,-0.2529297,-3.234863,-11.41357,10.13184,103.1232,4.235229,-6.860962,16.58333,-5.591667,1.55,1
177643,-0.15625,0.8676758,-0.05957031,19.59229,-12.51221,17.76123,104.5514,3.735352,-12.40356,-5.516667,-88.55833,35.79167,1
177883,0.08935547,1.007813,-0.2270508,9.70459,9.643555,14.5874,104.6503,3.345337,-18.09998,16.30833,-2.975,-1.766667,1
178133,0.07128906,0.9506836,-0.2753906,-12.146,15.19775,-17.02881,102.7332,2.894897,-15.16663,15.7,-5.383333,-1.05,1
178443,0.34814449999999997,0.9829102,0.005371094000000001,19.59229,27.40479,-23.07129,101.4587,2.334595,-8.393555,-4.275,-89.125,28.04167,1
178743,-0.08789063,0.9165038999999999,-0.1254883,3.90625,-4.455566,-9.094238,102.3486,4.213257,-6.135864,-3.208333,-90.10833,29.14167,1
179003,-0.06005859,0.8881836,-0.23632809999999999,0.7324219,-10.0708,12.39014,102.085,4.235229,-8.948364,16.19167,-6.375,1.05,1
179253,-0.2392578,1.121582,-0.06347656,15.625,-40.03906,18.12744,103.8922,3.729858,-14.68323,-5.833333,-88.45,35.65833,1
179563,0.2114258,0.9350586,-0.14306639999999998,-15.74707,-2.258301,9.460449,103.1946,1.549072,-19.91821,16.30833,-4.633333,-0.5583332999999999,1
181053,0.01855469,1.044922,-0.1796875,0.0,5.7983400000000005,18.73779,101.261,3.120117,-23.43384,-7.358333,-87.4,37.95833,1
181373,0.06494141,0.9516602,-0.2270508,-6.713867,7.141113,-18.85986,100.47,2.191772,-22.93945,16.40833,-6.825,0.7333333,1
181633,-0.1801758,1.0625,-0.01904297,-19.71436,7.751465,22.2168,100.5798,1.521606,-18.40759,14.49167,0.9666665999999999,-0.6166667,1
181863,0.06835938,1.058594,-0.14306639999999998,-8.300781,3.4790039999999998,-22.70508,102.0575,3.290405,-10.047,-4.433333,-90.0,28.58333,1
182093,-0.05175781,0.8925780999999999,-0.2275391,-7.568359,-13.3667,7.080078,101.0852,4.361572,-7.432251,16.59167,-4.616667,1.216667,1
182343,-0.2348633,0.9946288999999999,-0.03955078,19.53125,-36.01074,26.97754,102.9529,4.042969,-11.78833,-5.683333,-89.35833,31.39167,1
182583,0.09619141,1.030762,-0.12451169999999999,3.4790039999999998,-6.225586,22.3999,101.9696,3.12561,-20.02808,15.825,-2.675,-1.541667,1
182853,0.1870117,0.9101562999999999,-0.18212889999999998,-10.92529,-3.051758,-1.586914,100.2173,0.6152344,-25.307010000000002,16.0,-3.55,-1.375,1
183073,0.08837891,0.9555663999999999,-0.2592773,-0.42724609999999996,17.8833,-14.28223,99.26697,2.49939,-23.92273,24.13333,-2.883333,0.6416666999999999,1
183283,-0.1328125,0.9951171999999999,-0.0078125,-7.568359,54.07715,3.2958979999999998,100.8435,2.477417,-13.36487,-6.108333,-89.00833,29.925,1
183533,-0.04052734,0.9204102,-0.10839839999999999,-1.159668,22.64404,-14.70947,102.7551,4.141846,-9.871216,16.38333,-2.9333329999999997,-0.06666667,1
183773,-0.10644529999999999,0.9033203,-0.24560549999999998,4.211426,-26.12305,13.18359,102.3816,4.059448,-10.54138,18.91667,-5.5,0.8250000000000001,1
184083,-0.07470703000000001,1.006348,0.0034179690000000003,-6.591797,-42.29736,14.89258,102.843,3.197021,-18.81409,-7.2,-88.39167,35.65833,1
184383,0.1655273,0.9091796999999999,-0.137207,-9.94873,10.00977,7.019043,102.1729,1.2854,-23.3844,-8.916667,-86.69167,37.01667,1
184643,0.07910156,0.9472655999999999,-0.27880859999999996,-7.8125,23.80371,-14.64844,101.3599,1.636963,-19.48975,16.54167,-4.191667,-1.316667,1
184894,0.1601563,0.9174804999999999,-0.01416016,15.50293,2.807617,-11.1084,98.9978,2.059937,-10.67871,-5.158333,-89.58334,25.94167,1
185203,-0.02441406,0.921875,-0.08447266,-1.464844,15.07568,-18.18848,100.3821,4.960327,-2.993774,15.741670000000001,-1.575,-0.275,1
185503,-0.10107419999999999,0.8793945,-0.20947269999999998,6.713867,-18.9209,13.91602,100.849,4.553833,-3.570557,-3.4,-90.2,24.64167,1
185843,-0.02929688,0.9980469,0.01953125,-11.47461,-60.91309,12.20703,102.4255,3.960571,-12.17285,16.8,-1.191667,4.183333,1
186093,0.2026367,0.9023437999999999,-0.1411133,-2.075195,-1.098633,4.455566,102.7057,1.8402100000000001,-17.78137,-8.308333,-87.30833,33.33333,1
186323,0.1279297,0.9711913999999999,-0.27050779999999996,-7.629395,23.74268,-16.78467,102.2662,2.949829,-15.29297,16.35,-5.116667,-0.6166667,1
186574,0.2729492,0.9394530999999999,-0.006835938000000001,6.408691,20.01953,-23.13232,101.1896,2.944336,-8.66272,-5.325,-89.125,26.05,1
186803,0.01660156,0.9902344,-0.1152344,5.004883,-0.8544921999999999,-12.87842,101.7114,3.147583,-4.790039,16.11667,-2.583333,0.5,1
187083,-0.04736328,0.9023437999999999,-0.2504883,1.6479489999999999,-11.84082,7.8125,102.453,4.685669,-4.790039,15.25,-4.116667,1.683333,1
187303,-0.1020508,1.05127,-0.3945313,15.93018,-35.09521,11.16943,104.848,3.026733,-9.030762,15.38333,-3.666667,1.25,1
187513,0.24121089999999998,1.006836,-0.11425779999999999,12.93945,-26.30615,1.220703,104.5129,4.537354,-20.5719,-8.066667,-87.275,37.35833,1
187763,0.2280273,0.8876953,-0.2084961,-9.155273,-16.96777,8.911133,104.1504,2.345581,-25.35645,15.83333,-4.533333,-1.85,1
188003,0.03955078,0.9677734,-0.35742189999999996,-4.272461,41.56494,-15.74707,101.8762,4.174805,-22.95044,24.075,-3.608333,-2.541667,1
188313,-0.20507809999999999,0.9658203,-0.005859375,2.319336,30.39551,3.356934,101.2555,4.515381,-12.57935,-5.6,-89.20834,29.9,1
188613,-0.08203125,0.9057617,-0.2202148,-3.2958979999999998,-8.666992,3.601074,103.3374,6.141357,-10.20081,-4.241667,-90.33334,29.86667,1
188873,-0.01220703,0.9594727,-0.37353519999999996,4.882813,-15.50293,15.93018,103.7329,4.32312,-12.2113,20.20833,-5.166667,1.083333,1
189123,0.004882813000000001,0.9716796999999999,-0.04589844,-21.78955,-60.66895,11.84082,104.0735,3.746338,-21.35742,-7.616667,-87.33334,37.925,1
189433,0.1298828,0.9467772999999999,-0.1923828,-5.92041,33.20313,-3.234863,101.8323,1.175537,-21.56616,15.95,-3.691667,-1.816667,1
189733,-0.02832031,0.9570312999999999,-0.33251949999999997,-3.967285,65.55176,-22.58301,100.6512,3.257446,-9.552612,-4.216667,-89.64167,26.14167,1
190073,-0.1616211,1.01123,-0.02685547,-6.225586,30.2124,7.202148,100.816,2.779541,-2.664185,17.425,-2.491667,1.558333,1
190303,-0.08154297,0.9243163999999999,-0.11474609999999999,2.01416,-15.625,-11.35254,101.8597,4.768066,-5.223999,15.45,-2.983333,-0.008333334000000001,1
190493,-0.03320313,0.9418945,-0.2729492,1.89209,-14.03809,6.9580079999999995,101.9202,5.668945,-9.678955,15.93333,-5.175,0.49166669999999996,1
190703,0.02587891,1.413086,-0.2841797,11.2915,-45.34912,8.850098,102.5629,3.900146,-16.21582,14.85833,-0.7333333,3.975,1
190923,0.01269531,1.030273,-0.1967773,18.55469,10.19287,21.24023,103.8922,4.702148,-22.24182,-5.183333,-88.85833,38.33333,1
191153,0.04785156,0.9331054999999999,-0.23779299999999998,1.220703,12.3291,-8.300781,103.7329,2.9608149999999998,-23.43384,16.7,-4.483333,-1.091667,1
191403,0.048828130000000004,0.9526367,-0.3046875,-8.666992,30.70068,-13.85498,102.843,4.597778,-19.92371,20.525,-5.158333,-1.675,1
191624,0.04296875,0.9267578,0.01367188,-12.63428,44.92188,0.0,100.871,3.7133789999999998,-15.19409,-3.508333,-90.675,31.23333,1
191863,0.001953125,0.9707030999999999,-0.1328125,-2.258301,3.173828,-16.11328,101.3269,4.394531,-13.76587,15.96667,-2.608333,-0.6333333,1
192153,-0.1015625,0.8945312999999999,-0.22216799999999998,7.202148,-10.43701,14.83154,101.3049,4.119873,-14.12292,-3.166667,-90.91666,31.9,1
192423,-0.1728516,1.097168,-0.06738281,1.953125,-38.33008,16.41846,103.8263,4.235229,-18.80859,-3.791667,-90.625,36.31667,1
192713,-0.0078125,0.9521484,-0.2148438,0.793457,1.098633,17.76123,103.5791,3.202515,-23.20862,16.05833,-2.941667,-1.25,1
192963,0.08007813,0.9648437999999999,-0.3056641,-8.178711,14.5874,-15.44189,102.5134,2.010498,-20.4895,-4.416667,-90.25,34.775,1
193234,0.2568359,0.9335937999999999,-0.07763672,26.48926,-2.13623,-6.835938,100.2667,2.070923,-13.77136,-3.2,-90.95834,30.13333,1
193533,-0.05224609,0.9482421999999999,-0.1074219,21.42334,-19.77539,-12.26807,101.9092,2.466431,-8.651733,16.025,-2.2,0.36666669999999996,1
193783,-0.05615234,0.9316405999999999,-0.2666016,0.793457,-8.117676,6.835938,103.5022,5.559082,-12.51343,15.39167,-5.208333,1.166667,1
194053,0.011230470000000001,0.8740234,-0.13476559999999999,11.35254,-24.10889,1.403809,105.0018,5.108643,-18.82507,-3.141667,-91.05833,38.26667,1
194393,0.0009765625,0.9560546999999999,-0.2324219,0.3662109,-3.417969,17.8833,106.8585,3.729858,-29.67407,15.025,-4.816667,-0.675,1
194603,0.001953125,0.9238280999999999,-0.3393555,-7.141113,23.4375,-14.77051,105.8807,2.713623,-27.22961,16.29167,-5.616667,-1.558333,1
194813,0.022460940000000002,1.025879,-0.4223633,-2.929688,45.28809,-11.04736,104.7931,3.872681,-19.85229,16.16667,-2.291667,-1.066667,1
195033,-0.11425779999999999,1.045898,-0.1733398,8.666992,14.89258,-0.12207029999999999,103.7,2.04895,-12.59583,-3.65,-91.15833,32.925,1
195263,-0.1367188,0.9316405999999999,-0.2075195,-12.45117,-1.708984,-11.90186,103.244,4.971313,-11.80481,15.56667,-4.308333,-1.141667,1
195543,-0.1123047,0.9072266,-0.2402344,-2.807617,-8.850098,13.79395,101.8213,4.581299,-13.44177,15.88333,-6.95,0.5166666999999999,1
195763,0.1689453,1.242676,-0.21777339999999998,-18.73779,-12.20703,-16.23535,101.6949,3.960571,-18.67126,18.875,-1.691667,2.516667,1
197143,-0.02734375,0.9492187999999999,-0.23632809999999999,-5.67627,-0.3662109,6.103516,101.5741,4.663696,-16.82556,15.78333,-4.441667,0.2833333,1
197383,0.2358398,1.374512,-0.2768555,-17.7002,-9.094238,-9.216309,101.8707,2.867432,-24.09302,-5.183333,-90.04166,37.35833,1
197633,0.1879883,0.9555663999999999,0.015625,-11.1084,-39.48975,-5.67627,101.1072,2.779541,-28.25684,17.725,-3.725,0.7833333,1
197873,0.060546880000000004,0.9272461,-0.2280273,-5.67627,31.98242,-11.16943,100.7281,0.7305908,-25.55969,15.63333,-4.3,-1.0,1
198183,-0.07617188,1.368652,-0.3544922,4.089355,42.78564,4.882813,101.3544,3.515625,-12.453,-3.566667,-91.28333,29.33333,1
198483,-0.03759766,1.038086,-0.14306639999999998,9.338379,-32.04346,-12.81738,102.0245,3.619995,-5.141602,-1.216667,-92.46667,27.4,1
198753,-0.03857422,0.9062500000000001,-0.2089844,-7.8125,-44.92188,7.751465,100.5469,5.877686,-10.83801,15.2,-3.375,-0.2333333,1
199003,0.06591797,1.456543,-0.1772461,-3.90625,-41.93115,11.47461,101.8597,3.180542,-21.73645,-4.991667,-89.9,35.90833,1
199303,0.01367188,1.020508,-0.17041019999999998,11.23047,22.52197,15.13672,102.7496,3.279419,-30.64087,15.15833,-2.908333,-1.066667,1
199643,0.07568359,0.9755859,-0.2719727,-4.150391,17.57813,-16.47949,101.5411,2.6477049999999998,-27.52075,17.35833,-6.216667,0.008333334000000001,1
199843,-0.18164059999999999,1.053711,-0.09814453000000001,-28.07617,14.83154,15.93018,100.9369,1.889648,-22.89001,16.39167,-0.08333334,0.2333333,1
200073,0.04736328,0.9785155999999999,-0.1635742,-3.723145,18.49365,-20.99609,102.9199,3.202515,-9.398804,-2.858333,-91.125,28.41667,1
200303,-0.01806641,0.9189453,-0.2539063,-5.432129,-6.286621,3.723145,101.8817,4.378052,-6.350098,15.64167,-4.45,0.5833332999999999,1
200573,-0.03320313,1.176758,-0.2919922,7.873535,-45.41016,9.521484,102.6508,2.752075,-10.40405,14.23333,-1.408333,1.9916669999999999,1
200793,0.1191406,1.062012,-0.1801758,18.85986,3.967285,12.63428,102.464,3.861694,-22.340700000000002,-6.05,-89.03333,35.98333,1
201033,0.1518555,0.8676758,-0.19824219999999998,-7.324219,19.65332,-2.502441,101.5302,1.384277,-23.19763,14.89167,-4.283333,-0.5666667,1
201283,0.06396484,0.9438477,-0.3671875,-0.3051758,25.39063,-16.41846,101.6455,2.900391,-18.97888,25.14167,-3.625,2.058333,1
201493,-0.2905273,1.051758,-0.13134769999999998,-11.35254,36.07178,3.112793,104.0295,1.697388,-7.981567,-4.041667,-90.25833,28.025,1
201743,-0.09667969,0.8974609,-0.1962891,-6.9580079999999995,12.93945,-10.43701,103.9636,3.839722,-8.942871,15.44167,-3.566667,-1.4583329999999999,1
202023,-0.0625,0.9853516,-0.4873047,7.995605,-28.32031,22.52197,104.0625,2.224731,-14.3866,-5.933333,-89.29166,31.59167,1
202293,0.2529297,0.9750977,-0.10644529999999999,-2.685547,-9.94873,-1.098633,103.5461,3.345337,-21.43982,-6.525,-88.95,34.93333,1
202583,0.24951169999999998,0.8837891,-0.17382809999999999,-12.75635,22.94922,-2.319336,102.7332,0.7525634999999999,-18.45154,15.65,-5.275,-0.6083333,1
202833,0.0625,0.9770508,-0.4160156,7.8125,50.90332,-19.40918,104.5129,3.12561,-3.669434,-1.683333,-91.68333,23.875,1
203103,-0.184082,0.9301758,-0.171875,14.70947,-19.71436,-14.64844,105.9137,1.757813,6.38855,1.175,-93.075,21.45,1
203413,-0.1303711,0.8959961,-0.2714844,-9.58252,-22.33887,7.629395,104.7162,4.11438,3.482666,15.225,-4.575,0.1166667,1
203653,0.10888669999999999,1.516113,-0.265625,-9.94873,-31.49414,-9.094238,105.1996,3.153076,-5.064697,18.875,-1.666667,4.216667,1
203963,0.02001953,0.8852538999999999,-0.1987305,8.178711,46.63086,10.19287,103.9801,2.8125,-9.250488,15.54167,-3.033333,-2.8083329999999997,1
204203,-0.1411133,0.9130859,-0.3232422,-2.868652,33.02002,-19.47021,102.9584,1.8731689999999999,-3.24646,15.73333,-5.041667,-0.5,1
204423,-0.2802734,0.9287109,0.09130859,-6.835938,-8.911133,31.92139,102.8046,2.180786,4.932861,1.283333,-92.99167,18.95833,1
204653,-0.27832029999999996,0.9414062999999999,-0.09960938,16.47949,-3.173828,-14.34326,102.9803,0.9558105,12.89246,16.925,-3.15,-2.175,1
204903,-0.007324219000000001,0.8603516,-0.26269529999999996,1.525879,-14.28223,12.45117,102.843,3.499146,12.33215,5.783333,-94.175,15.39167,1
205143,-0.12451169999999999,1.250977,-0.3242188,22.88818,-40.52734,5.554199,105.4358,1.7303469999999999,6.465454,14.08333,-0.85,6.983333,1
205423,0.1523438,0.9321288999999999,-0.09277344,-19.40918,-53.10059,-6.835938,105.7379,3.878174,0.1208496,16.45,-3.433333,1.85,1
205633,0.056640630000000004,0.9257812999999999,-0.22509769999999998,-18.73779,4.455566,1.89209,105.2216,1.796265,1.005249,16.00833,-4.566667,-0.7666666999999999,1
205843,0.06298828000000001,0.9458008,-0.3447266,-2.807617,40.52734,-16.23535,103.8318,3.812256,7.662964,5.241667,-94.875,17.34167,1
206093,-0.32519529999999996,0.9897461,-0.10058589999999999,-22.33887,-34.97314,33.63037,102.7661,2.900391,14.72717,14.575,-0.4333333,-1.025,1
206333,-0.02001953,1.058594,-0.1728516,-6.530762,-23.19336,-9.155273,103.8373,3.878174,15.62256,16.20833,-3.25,-0.9583332999999999,1
206643,-0.01171875,0.8740234,-0.2241211,-5.432129,-19.22607,12.08496,100.8051,4.872437,6.998291,4.5,-94.13333,16.69167,1
206943,-0.3603516,1.118164,-0.04736328,26.42822,-74.76807,23.01025,102.2168,4.152832,-3.504639,-0.025,-93.68333,24.09167,1
207213,-0.1533203,0.9726562999999999,-0.2197266,-1.7700200000000001,16.96777,11.16943,102.3376,3.647461,-9.052734,15.45,-2.816667,-1.6,1
207464,0.11083979999999999,0.9570312999999999,-0.27050779999999996,0.12207029999999999,23.25439,-17.63916,100.7721,4.119873,-4.779053,1.225,-94.13333,21.10833,1
207763,-0.04785156,0.9179687999999999,0.004394531,-21.66748,50.04883,-7.263184,101.0028,3.565063,4.092407,16.15,-1.8666669999999999,1.175,1
208103,-0.1381836,0.9326171999999999,-0.1450195,-3.540039,-3.356934,-5.432129,101.3928,6.377563,5.894165,15.84167,-4.291667,-0.3416667,1
208303,-0.1191406,0.8608397999999999,-0.2612305,2.319336,-11.90186,15.68604,101.4423,5.097656,5.202026,16.11667,-8.358334,2.791667,1
208533,-0.009277344,1.071289,0.01074219,-11.2915,-52.49023,10.68115,103.9417,4.751587,-0.9887695,2.625,-95.11667,22.625,1
208763,-0.06884766,0.9438477,-0.1796875,-2.929688,0.6103516,8.239746,104.0625,3.136597,-1.6149900000000001,15.275,-4.091667,-0.5583332999999999,1
209034,-0.08251953000000001,0.9116211,-0.2998047,-8.117676,23.13232,-16.72363,103.1177,3.032227,3.109131,15.975,-5.125,-0.6416666999999999,1
209253,0.0546875,0.8608397999999999,-0.02441406,35.15625,8.361816,7.202148,103.1836,1.834717,13.02429,8.3,-95.94167,15.93333,1
209493,-0.1435547,0.8847655999999999,-0.1450195,9.643555,6.408691,-23.62061,103.288,2.5872800000000002,22.78015,15.1,-3.441667,-1.916667,1
209743,-0.2421875,0.9140625,-0.2353516,-7.385254,2.807617,2.807617,102.843,4.487915,27.48779,14.35833,-4.741667,1.45,1
209953,-0.08251953000000001,0.8427734,-0.12402339999999999,19.34814,-17.39502,9.216309,104.6887,4.746094,20.66528,12.36667,-97.15,15.78333,1
210203,0.22900389999999998,1.0,-0.20166019999999998,10.68115,-7.873535,17.8833,104.1339,4.32312,10.29968,15.85833,-3.525,-1.766667,1
210483,-0.004394531,0.9409179999999999,-0.2583008,-8.361816,4.638672,-19.104,101.8927,3.317871,9.195557,7.7,-95.71667,17.13333,1
210753,0.11279299999999999,0.8095703,0.006835938000000001,-10.55908,65.73486,-35.33936,102.4475,3.729858,15.89722,11.23333,-96.20834,15.10833,1
211043,0.02197266,0.9877929999999999,-0.15039059999999999,0.12207029999999999,-0.8544921999999999,-19.59229,103.3978,4.724121,21.33545,15.48333,-3.225,-1.341667,1
211293,-0.1494141,0.8833008,-0.31835939999999996,1.708984,-17.8833,15.86914,102.464,5.52063,23.31299,14.20833,-96.63333,14.1,1
211563,-0.1293945,1.13916,-0.03369141,0.4882813,-58.10547,23.74268,104.6503,3.966064,17.22107,10.525,-96.45,17.475,1
211873,-0.05761719,0.9194336,-0.1914063,-4.699707,-12.02393,17.51709,104.0131,2.537842,12.68921,15.375,-3.058333,-1.308333,1
213283,-0.02001953,1.010742,-0.05810547,-12.93945,-40.89355,13.30566,106.0126,4.152832,22.88452,16.76667,-1.758333,1.558333,1
213573,-0.02685547,0.9062500000000001,-0.2958984,-11.53564,16.96777,-14.89258,102.8705,1.560059,20.6488,11.475,-95.45,15.48333,1
213823,0.1015625,0.9199219,-0.4331055,10.49805,50.1709,-15.44189,102.7991,3.482666,26.68579,18.60833,-0.325,-6.008333,1
214073,0.26220699999999997,0.7915038999999999,-0.005859375,-7.324219,57.31201,-31.12793,103.1287,2.598267,33.21167,17.425,-1.7083329999999999,2.25,1
214293,-0.1689453,0.9086913999999999,-0.1713867,-1.342773,7.263184,-4.577637,102.7826,4.822998,37.05688,21.775,-96.175,12.075,1
214523,-0.05957031,0.9702147999999999,-0.3759766,10.25391,-18.31055,19.104,104.8645,3.262939,34.530030000000004,24.59167,-6.525,3.366667,1
214773,0.11474609999999999,0.9204102,-0.06689453000000001,-11.77979,-32.59277,2.380371,105.8698,4.053955,27.69653,16.05,-96.975,16.78333,1
215023,0.052734380000000004,0.9331054999999999,-0.23730469999999998,-12.51221,-7.751465,4.760742,104.8865,2.021484,26.49902,15.36667,-4.6,-1.6,1
215293,0.04589844,0.9428711,-0.2436523,-15.01465,10.49805,-20.87402,102.7606,3.488159,29.32251,15.68333,-6.425,-0.8916666,1
215503,-0.1772461,1.555664,-0.2163086,-13.18359,34.48486,10.00977,102.6068,3.6804200000000002,37.93579,16.16667,0.8583333999999999,3.291667,1
215723,0.01464844,0.9975586,-0.1796875,11.1084,-17.45605,-14.52637,105.5511,3.812256,46.23596,16.11667,-3.883333,-0.2083333,1
216003,-0.06689453000000001,0.9326171999999999,-0.3422852,0.12207029999999999,-34.5459,17.21191,105.9521,3.790283,40.57251,22.59167,-97.08334,14.46667,1
216263,0.2431641,0.7382812999999999,-0.026367190000000002,5.126953,-20.69092,-11.1084,104.7766,4.520874,34.07959,18.50833,-1.158333,-2.391667,1
216513,-0.1381836,0.9853516,-0.22998049999999998,1.525879,-0.1831055,12.51221,105.0897,3.186035,28.60291,16.425,-96.9,16.25833,1
216813,0.15039059999999999,0.9042969,-0.3212891,-5.249023,42.05322,-22.2168,104.2053,4.130859,34.04663,21.575,-97.075,13.925,1
217093,-0.3764648,1.03418,-0.09521484000000001,-46.02051,-2.563477,34.91211,104.7931,3.4552,41.05591,15.70833,-0.1166667,0.5,1
217333,0.02148438,1.019043,-0.22216799999999998,2.380371,-29.1748,-20.81299,105.7983,2.477417,42.40173,24.59167,-97.7,15.3,1
217633,-0.07568359,0.8759766,-0.2890625,0.1831055,-13.91602,17.39502,104.1229,4.751587,39.50684,15.69167,-8.15,1.266667,1
217973,-0.3300781,0.9804687999999999,-0.0703125,28.80859,-19.16504,8.117676,105.8643,4.400024,34.38171,16.21667,-1.066667,-2.491667,1
218183,0.03857422,0.9501953,-0.2324219,-2.563477,31.49414,16.05225,104.4745,3.845215,29.60266,15.60833,-4.05,-2.891667,1
218403,0.09277344,0.9409179999999999,-0.2895508,-6.225586,15.56396,-22.2168,102.5134,3.202515,35.65613,21.89167,-96.86667,13.51667,1
218633,-0.2973633,1.332031,-0.3129883,-23.62061,17.45605,25.6958,102.9364,3.334351,44.13757,15.525,-1.158333,2.091667,1
218903,-0.2607422,1.040039,-0.07519531,-5.615234,34.5459,14.34326,102.0959,1.697388,50.69641,17.39167,-3.175,1.733333,1
219123,-0.01904297,0.9257812999999999,-0.230957,-1.281738,-20.62988,6.713867,102.4805,4.564819,48.18054,29.175,-96.71667,12.875,1
219373,0.01074219,0.8867187999999999,-0.3896484,8.239746,-26.12305,16.6626,103.3539,2.680664,44.82971,20.36667,-6.208333,1.475,1
219613,-0.1772461,0.9067383,-0.02978516,47.54639,-0.6713867,-15.56396,104.491,3.856201,40.02869,17.325,-1.716667,-3.158333,1
219823,-0.0004882813,0.9350586,-0.2651367,-20.62988,-10.0708,9.643555,104.0735,2.790527,33.85437,20.825,-97.40833,15.64167,1
220073,-0.01171875,0.9370117,-0.284668,-7.019043,8.239746,-22.09473,102.7826,3.521118,38.07312,15.66667,-6.391667,-1.008333,1
220353,0.30224609999999996,0.9394530999999999,0.01367188,35.64453,15.38086,-14.28223,101.8982,2.944336,47.647710000000004,30.875,-96.55,12.50833,1
220623,-0.09472656,0.9106445,-0.14697269999999998,-2.258301,7.69043,-9.277344,102.4146,5.19104,53.61877,33.85833,-96.39167,13.03333,1
220913,-0.06542969,0.9008788999999999,-0.24560549999999998,-1.037598,-4.760742,11.23047,102.2003,4.614258,52.3114,15.925,-6.566667,1.066667,1
221163,-0.21728519999999998,0.8911133,-0.03710938,38.81836,-21.3623,-0.42724609999999996,104.5953,4.75708,46.18103,27.90833,-97.68333,14.60833,1
221443,0.08691406,0.8828125,-0.20556639999999998,-14.34326,-16.35742,11.77979,102.7167,2.526855,38.43567,23.88333,-97.21667,13.76667,1
221743,0.1298828,0.9726562999999999,-0.2475586,-12.51221,11.35254,-15.38086,101.1182,2.949829,40.28137,16.90833,-6.183333,-0.5166666999999999,1
222043,-0.22119139999999998,0.9614258,0.01757813,-2.990723,44.55566,5.004883,98.24524,3.158569,53.61877,33.10833,-95.33334,10.15833,1
222283,-0.14257809999999999,0.9335937999999999,-0.1235352,1.89209,38.75732,-14.64844,100.069,4.844971,58.74939,16.18333,-3.1,0.09166667,1
222533,-0.1152344,0.8994141,-0.2246094,3.173828,-4.577637,10.62012,100.9753,4.9273679999999995,61.36414,16.4,-4.5,1.158333,1
222753,0.1762695,0.8984375,-0.02392578,-5.065918,-16.54053,-6.225586,102.6508,3.78479,54.87671,33.875,-96.74167,13.30833,1
222983,0.20556639999999998,0.9770508,-0.09667969,13.24463,4.02832,5.371094,102.7826,4.614258,49.25171,16.46667,-2.941667,-0.05833333,1
223233,-0.06298828000000001,0.9238280999999999,-0.3085938,-1.586914,19.47021,-12.93945,102.9144,2.438965,52.90466,32.475,-97.13333,13.38333,1
223483,-0.08447266,1.033691,-0.3227539,-1.342773,39.48975,-11.2915,102.7881,3.603516,59.65576,16.34167,-1.291667,1.216667,1
223753,0.1606445,0.8623046999999999,0.024902340000000002,-17.15088,69.88525,-22.33887,102.2443,2.416992,63.4021,17.14167,-1.033333,1.225,1
223963,0.05859375,0.9863280999999999,-0.1484375,-1.8310549999999999,14.34326,-19.104,102.5574,3.12561,68.91174,15.4,-3.558333,-0.2833333,1
224183,-0.12207029999999999,0.9257812999999999,-0.253418,8.544922,-7.568359,10.68115,103.4692,3.3728029999999998,72.67456,17.95,-6.291667,1.966667,1
224463,-0.08789063,1.073242,-0.12060549999999999,-1.953125,-58.83789,16.90674,105.1117,3.57605,65.90698,39.01667,-97.175,16.16667,1
224723,-0.005859375,0.9077147999999999,-0.22070309999999999,-1.89209,-22.70508,17.82227,103.623,2.449951,58.26599,15.24167,-2.741667,-1.983333,1
224973,0.1333008,0.9560546999999999,-0.28564449999999997,-9.033203,18.9209,-22.09473,101.5247,2.653198,56.79382,36.325,-96.69167,12.6,1
225273,0.2124023,0.8916016,0.02978516,28.68652,28.25928,-14.64844,102.4915,2.158813,63.48999,39.65,-96.66666,14.75,1
225553,0.03369141,0.9624022999999999,-0.15917969999999998,8.117676,-15.68604,-17.21191,104.1998,3.197021,66.81885,15.741670000000001,-3.35,0.05833333,1
225793,-0.05224609,0.9648437999999999,-0.2998047,3.112793,-19.83643,9.887695,104.2822,3.466187,63.38013,39.16667,-97.15,15.90833,1
226103,-0.08300781,1.05957,-0.06738281,-24.16992,-70.61768000000001,10.31494,103.6505,4.075928,54.39331,16.66667,-1.841667,2.583333,1
226433,0.2426758,0.8828125,-0.1884766,-8.300781,4.577637,-1.037598,100.9424,2.504883,47.31262,15.83333,-4.583333,-1.075,1
226643,0.09375000000000001,0.9545897999999999,-0.2978516,4.943848,28.68652,-11.96289,100.9698,4.328613,51.20728,22.9,-5.166667,-0.3083333,1
226863,-0.05126953,0.9819336,-0.02197266,-13.67188,57.86133,4.272461,101.7664,2.801514,59.03503,37.875,-96.70834,14.35,1
227093,-0.03564453,0.8964844,-0.1811523,-3.417969,21.97266,-17.02881,102.6782,4.405518,62.32544,15.21667,-3.85,0.1833333,1
227373,-0.05761719,0.9458008,-0.2954102,3.601074,-5.615234,9.887695,103.6945,4.11438,62.11121,15.675,-5.616667,0.45,1
227583,-0.3071289,0.9516602,-0.15820309999999999,38.81836,-18.67676,15.50293,105.0183,4.520874,58.08472,37.63334,-97.325,17.11667,1
227833,0.05957031,1.056641,-0.2265625,0.9765625,-6.04248,22.27783,104.068,4.713135,48.66943,16.04167,-3.608333,-2.525,1
229243,-0.23730469999999998,1.099609,-0.04052734,22.52197,-41.74805,18.24951,102.5244,4.328613,57.15088,16.31667,-0.05,-0.5750000000000001,1
229483,0.01171875,0.9726562999999999,-0.1948242,-5.981445,-6.225586,20.32471,101.8433,3.790283,50.52063,15.83333,-2.866667,-1.491667,1
229703,0.05224609,0.9707030999999999,-0.27880859999999996,-4.760742,6.347656,-17.57813,100.8984,3.257446,49.1748,16.71667,-4.775,-0.49166669999999996,1
230013,0.08203125,0.8662109,-0.07373047,32.4707,-7.324219,0.9765625,100.4865,3.175049,53.93188,37.65833,-93.94167,10.78333,1
230313,-0.03466797,0.9067383,-0.1606445,-2.807617,18.9209,-14.95361,102.9419,4.053955,61.64429,15.975,-3.241667,-0.01666667,1
230613,-0.08300781,0.8881836,-0.31787109999999996,3.234863,-27.58789,10.0708,103.656,3.537598,60.01831,38.7,-94.6,12.35833,1
230913,-0.008789063,1.068848,-0.04638672,-15.68604,-60.72998,-1.098633,104.1943,4.75708,52.58057,35.1,-95.23333,11.9,1
231193,-0.04296875,0.9624022999999999,-0.16650389999999998,-5.432129,2.929688,5.187988,104.447,3.757324,51.59729,15.56667,-3.691667,-0.8083332999999999,1
231433,0.08056641,0.9536133,-0.3271484,-8.239746,30.70068,-15.86914,103.3484,4.592285,58.15063,38.86666,-94.54166,12.49167,1
231773,0.215332,0.9697266,-0.1201172,1.708984,-1.525879,-13.61084,101.6785,3.735352,60.15564,17.2,-0.3333333,-0.2833333,1
232003,-0.026367190000000002,0.9995117,-0.18164059999999999,10.25391,-0.7324219,-10.55908,102.2607,3.647461,63.51746,16.0,-3.05,0.675,1
232193,-0.009765625,0.9116211,-0.22949219999999998,-0.4882813,-16.29639,1.342773,102.7881,5.267944,62.5177,15.5,-4.391667,-0.1333333,1
232403,-0.004882813000000001,0.9355469,-0.3291016,6.9580079999999995,-19.9585,12.45117,103.7494,3.762817,59.76013,19.56667,-7.508333,2.025,1
232623,-0.04833984,1.019043,-0.05566406,-18.85986,-60.05859,6.591797,104.2987,4.707642,52.04224,33.54167,-96.25833,13.85,1
232853,-0.03076172,0.9770508,-0.1923828,-10.92529,1.525879,7.629395,103.3704,3.444214,50.88318,15.50833,-3.966667,-1.616667,1
233103,0.12255859999999999,0.9614258,-0.2998047,-7.995605,33.99658,-13.5498,101.0852,4.119873,57.2113,36.68333,-95.44167,12.025,1
233353,-0.2431641,1.039551,-0.1435547,-6.896973,2.197266,17.94434,99.87122,3.284912,63.02856,15.03333,0.425,-1.941667,1
233623,-0.09521484000000001,0.9936522999999999,-0.1113281,18.12744,-10.62012,-7.629395,101.1292,2.845459,66.82983,16.49167,-2.675,-0.05833333,1
233973,-0.08740234,0.8818359,-0.3007813,10.37598,-19.83643,9.70459,102.0959,4.224243,63.66577,20.80833,-6.658333,1.483333,1
234243,0.026367190000000002,1.015137,-0.046875,-21.24023,-56.88477,-3.845215,103.5022,4.779053,55.777590000000004,36.26667,-97.79166,14.741670000000001,1
234543,0.1386719,0.9111328,-0.1958008,-8.361816,13.67188,-5.493164,101.9421,2.565308,52.42676,16.06667,-4.166667,-1.166667,1
234863,0.04052734,1.052246,-0.3129883,-2.075195,55.11475,-11.71875,100.7831,5.284424,60.34241,16.93333,-1.416667,-3.775,1
235143,-0.1723633,0.996582,-0.02197266,7.995605,13.5498,10.86426,99.14612,3.339844,65.87952,41.95,-97.14167,14.73333,1
235413,-0.10839839999999999,0.9604492,-0.1293945,0.7324219,-5.859375,-8.483887,100.5359,4.713135,64.56665,15.93333,-3.341667,0.0,1
235663,-0.03857422,0.949707,-0.31787109999999996,9.58252,-26.00098,13.73291,101.3818,3.696899,60.15564,39.19167,-98.01667,15.125,1
235963,-0.1791992,1.097168,-0.05126953,0.42724609999999996,-61.4624,25.6958,103.5736,4.136353,54.46472,15.44167,-0.9083334,1.016667,1
236343,-0.02441406,0.9174804999999999,-0.2504883,-7.8125,23.80371,-13.85498,101.2994,2.389526,48.5321,34.81667,-98.8,13.866670000000001,1
236593,0.0004882813,1.011719,-0.296875,-2.075195,31.37207,-12.93945,101.0522,4.575806,53.30566,20.36667,-5.158333,-1.316667,1
236853,-0.03662109,0.9169921999999999,0.02587891,0.6103516,14.46533,8.239746,100.9589,3.834229,55.95886,39.38334,-98.34167,14.30833,1
237083,-0.06542969,0.9765625,-0.16699219999999998,-0.9765625,-17.51709,-12.93945,101.8872,4.614258,53.21777,15.866670000000001,-2.675,-1.033333,1
237333,-0.08740234,0.9277344,-0.2724609,-2.258301,-8.605957,9.216309,100.2667,4.9273679999999995,49.03198,37.13334,-98.15833,12.30833,1
237573,0.2460938,1.30127,-0.2192383,-6.591797,-4.272461,-10.49805,100.3821,3.834229,44.62646,17.85,-2.608333,3.291667,1
237853,0.1757813,0.9575195,0.06103516,-19.47021,-38.75732,-2.441406,99.87671,4.465942,42.67639,17.925,-3.908333,0.49166669999999996,1
238063,0.060546880000000004,0.9663086,-0.1708984,-7.141113,-2.01416,10.25391,100.5359,2.373047,42.9895,15.425,-3.9333329999999997,0.15833329999999998,1
238273,0.03417969,1.020996,-0.2753906,-1.953125,26.36719,-12.87842,100.6622,3.284912,48.51013,36.65,-98.34167,11.58333,1
238523,-0.07910156,0.8666992,-0.006835938000000001,12.63428,-0.8544921999999999,10.43701,100.5359,2.191772,53.20679,15.48333,-0.025,-1.016667,1
238763,0.052734380000000004,0.9975586,-0.1601563,-8.239746,16.72363,-19.40918,102.7496,3.433228,61.18286,15.88333,-3.7,-0.5,1
239093,-0.08154297,0.9399413999999999,-0.3081055,2.807617,-15.25879,10.19287,103.3923,3.109131,61.96289,21.25833,-6.883333,1.858333,1
239373,0.11083979999999999,0.9462891,-0.041015630000000004,-17.63916,-51.51367,2.929688,103.5516,4.0979,53.73962,38.93333,-98.78333,14.21667,1
239643,0.05566406,0.9790038999999999,-0.18603519999999998,-13.79395,-10.19287,5.859375,102.8375,2.559814,52.11914,16.075,-3.441667,-1.366667,1
239893,0.078125,0.9467772999999999,-0.28564449999999997,-3.2958979999999998,39.91699,-16.60156,100.3601,3.916626,57.23877,42.50834,-97.25,12.55,1
240193,0.21435549999999998,0.9248046999999999,0.006835938000000001,-6.225586,47.79053,-20.26367,101.1237,3.488159,64.61609,17.34167,-1.316667,2.566667,1
240573,0.01269531,0.9262695,-0.23339839999999998,2.075195,-10.43701,3.112793,102.5629,5.471191,65.87402,46.79167,-97.0,15.98333,1
240824,-0.02050781,0.9404296999999999,-0.41113279999999996,9.58252,-38.45215,18.61572,103.3923,3.9935300000000002,61.556400000000004,20.95833,-4.566667,0.125,1
241083,0.09179688,0.9355469,-0.02685547,-15.74707,-58.83789,11.53564,103.8318,4.674683,53.12439,39.20833,-98.81667,13.75833,1
241313,0.05419922,0.9648437999999999,-0.1962891,-5.859375,-20.87402,10.37598,103.1067,3.6859129999999998,47.99377,15.475,-3.833333,-1.191667,1
241563,0.1376953,0.9570312999999999,-0.30908199999999997,-6.164551,30.51758,-16.6626,100.7666,3.90564,50.50964,38.44167,-97.80833,11.2,1
241803,-0.1303711,0.9990234,-0.1523438,-4.02832,-16.17432,18.79883,99.34937,3.070679,54.66248,15.65833,0.1,-0.5750000000000001,1
242073,-0.105957,0.9995117,-0.06201172,12.20703,27.52686,2.380371,100.014,2.872925,60.0238,16.98333,-2.55,0.675,1
242294,-0.1357422,0.9443359,-0.17041019999999998,3.051758,11.53564,-11.96289,102.052,5.031738,63.2373,16.50833,-3.683333,0.1333333,1
242503,-0.026367190000000002,0.9052734,-0.3291016,0.12207029999999999,-31.61621,14.03809,102.085,4.273682,60.150150000000004,43.03333,-97.10833,12.866670000000001,1
242743,-0.10888669999999999,0.8173828,0.0234375,26.9165,-8.666992,-6.286621,101.3873,5.015259,53.82202,17.4,-1.183333,-1.45,1
242993,-0.02050781,0.9755859,-0.1870117,-1.7700200000000001,-27.22168,13.97705,102.5574,3.339844,40.91309,15.11667,-3.575,-0.7416667,1
243323,0.06982422,0.9589844,-0.2871094,-7.019043,40.2832,-16.8457,101.0468,3.790283,44.82971,20.275,-6.2,0.36666669999999996,1
243603,0.1621094,0.9291992,0.009765625,-14.34326,53.40576,-16.11328,100.2667,2.856445,52.24548,39.55,-96.9,10.25833,1
243863,0.01611328,0.9814453,-0.1308594,-0.6713867,11.90186,-18.9209,100.5963,3.224487,57.09045,15.96667,-2.6,-1.166667,1
244113,-0.09619141,0.8657227,-0.2416992,10.00977,-20.87402,19.22607,100.9753,3.47168,57.7771,41.26667,-96.80833,11.39167,1
244423,-0.03320313,1.012695,-0.03955078,2.197266,-45.71533,28.93066,104.2218,3.032227,49.02649,16.64167,-0.8416665999999999,-0.008333334000000001,1
245923,-0.09912109000000001,0.9189453,-0.2749023,4.089355,-29.96826,13.3667,101.6785,3.630981,51.70166,18.50833,-5.533333,1.133333,1
246213,0.19384769999999998,0.9311522999999999,-0.056640630000000004,5.981445,-14.46533,-2.319336,101.5741,4.295654,39.30359,32.26667,-97.325,10.66667,1
246473,0.1967773,0.9160155999999999,-0.1679688,-7.324219,14.16016,6.286621,101.3818,1.768799,38.69385,16.24167,-3.916667,-1.216667,1
246723,0.022460940000000002,0.965332,-0.31738279999999996,-2.258301,37.65869,-13.06152,100.6842,3.120117,45.3241,36.075,-96.33334,9.983334,1
246953,0.1318359,0.9360352,-0.08544922,19.53125,-0.3051758,1.586914,100.5469,1.972046,48.59802,15.991670000000001,-0.1916667,-1.716667,1
247203,0.01074219,0.9589844,-0.15039059999999999,1.220703,13.5498,-19.22607,101.8103,3.284912,56.39282,41.45833,-96.40833,13.03333,1
247443,-0.03417969,0.9106445,-0.24511719999999998,-4.821777,1.037598,5.310059,101.5302,4.372559,58.36487,16.40833,-4.858333,0.8916666,1
247723,-0.07080078000000001,1.108887,-0.35595699999999997,16.23535,-44.00635,9.521484,102.9089,2.993774,54.11865,14.24167,-1.941667,1.908333,1
247933,-0.1035156,1.053223,-0.06494141,-10.19287,-61.88965,16.47949,103.4692,3.944092,49.29016,16.10833,-0.925,1.091667,1
248143,0.2202148,0.9062500000000001,-0.1850586,-8.972168,2.624512,7.93457,101.228,1.680908,39.6167,30.34167,-97.25833,10.36667,1
248383,0.1464844,0.9624022999999999,-0.2983398,-3.234863,17.94434,-16.96777,100.816,2.6696779999999998,40.9021,16.61667,-5.958333,-0.2166667,1
248633,0.2973633,0.9804687999999999,-0.09326172,20.93506,11.77979,-15.86914,101.1072,2.175293,47.52686,15.35833,0.05,-0.25,1
248963,-0.01025391,0.953125,-0.1762695,2.319336,16.6626,-17.82227,102.8375,3.988037,53.78357,15.91667,-3.641667,-0.7166667,1
