Timestamp,AccX,AccY,AccZ,GyroX,GyroY,GyroZ,AngX,AngY,AngZ,MagX,MagY,MagZ,Tag
9124,0.07128906,1.01416,0.01855469,0.4882813,-0.24414059999999999,0.4882813,90.73608,-4.400024,-156.0608,17.28333,0.2916667,-0.05833333,1
9364,0.07177734,1.01416,0.01171875,0.3662109,0.7324219,0.4882813,90.75256,-4.515381,-156.0773,50.98333,-95.34167,60.14167,1
9684,0.07226563,1.011719,0.01171875,0.06103516,-0.12207029999999999,0.1831055,90.77454,-4.575806,-156.0718,17.33333,0.2166667,-0.01666667,1
9984,0.07470703000000001,1.015625,0.020996090000000002,-0.3662109,-0.42724609999999996,0.12207029999999999,90.62622,-4.564819,-156.0663,17.225,0.2583333,0.01666667,1
10324,0.07324219,1.018066,0.015625,0.3051758,0.0,0.06103516,90.5658,-4.575806,-156.0663,17.31667,0.325,0.025,1
10544,0.07275391,1.016113,0.01416016,0.24414059999999999,-0.3051758,0.0,90.5603,-4.570313,-156.0553,17.33333,0.275,-0.03333333,1
10734,0.07470703000000001,1.013184,0.01953125,0.06103516,-0.1831055,0.1831055,90.52185,-4.575806,-156.0828,17.30833,0.15833329999999998,0.05,1
10944,0.07861328000000001,1.016113,0.005859375,-0.5493163999999999,0.42724609999999996,0.06103516,90.49988,-4.597778,-156.0663,17.29167,0.425,-0.06666667,1
11164,0.07128906,1.006836,0.02587891,0.42724609999999996,0.06103516,0.1831055,90.3241,-4.597778,-155.9454,50.94167,-95.41666,60.075,1
11404,0.07714844,1.019043,0.01269531,0.42724609999999996,-1.342773,0.3051758,90.46692,-4.630737,-156.0278,17.3,0.2916667,0.15833329999999998,1
11654,0.07666016,1.012695,0.011230470000000001,1.220703,0.42724609999999996,0.24414059999999999,90.63171,-4.658203,-156.0828,17.29167,0.15833329999999998,0.09166667,1
11864,0.07470703000000001,1.01709,0.00390625,-0.6713867,-0.7324219,0.24414059999999999,90.70862,-4.691162,-156.1157,50.85,-95.3,60.08333,1
12114,0.07519531,1.010742,0.01660156,-0.8544921999999999,0.4882813,0.12207029999999999,90.42297,-4.702148,-155.9949,17.25,0.30000000000000004,-0.05,1
12394,0.07275391,1.012695,0.026367190000000002,1.708984,0.24414059999999999,-0.12207029999999999,90.40649,-4.614258,-155.9894,50.95,-95.24167,60.325,1
12664,0.0703125,1.009277,0.02734375,-0.3662109,-0.24414059999999999,0.12207029999999999,90.21973,-4.498901,-155.9399,51.09167,-95.21667,60.01667,1
12964,0.07421875,1.019043,0.015136720000000001,-0.4882813,-0.1831055,0.5493163999999999,90.20874,-4.542847,-155.929,17.3,0.31666669999999997,0.01666667,1
13204,0.07470703000000001,1.013184,0.01318359,0.9155272999999999,-0.3662109,0.4882813,90.30762,-4.65271,-155.929,50.94167,-95.39167,60.31667,1
13474,0.07714844,1.016602,0.0,0.12207029999999999,0.3051758,0.3662109,90.52185,-4.724121,-155.9399,50.85833,-95.30833,60.125,1
13790,0.07910156,1.015137,0.01220703,-0.3662109,-0.3051758,-0.24414059999999999,90.39001,-4.713135,-155.9619,50.98333,-95.29166,60.325,1
14114,0.07177734,1.012207,0.01074219,0.42724609999999996,0.24414059999999999,0.1831055,90.42297,-4.625244,-156.0278,17.29167,0.15833329999999998,0.075,1
14464,0.07421875,1.013672,0.005371094000000001,0.8544921999999999,-0.4882813,0.24414059999999999,90.59875,-4.663696,-156.0663,17.31667,0.08333334,0.075,1
14654,0.07617188,1.013672,0.002929688,0.24414059999999999,0.0,0.3662109,90.66467,-4.685669,-156.0553,17.35,0.075,0.01666667,1
14854,0.07226563,1.016602,0.002441406,-0.3051758,-0.3051758,0.12207029999999999,90.62622,-4.669189,-156.0498,17.18333,0.1916667,-0.05,1
15064,0.07128906,1.012207,0.005371094000000001,-0.4882813,0.7324219,0.0,90.4834,-4.63623,-156.0004,17.30833,0.2583333,0.09166667,1
15274,0.07958984,1.01709,-0.0009765625,-0.12207029999999999,0.0,0.6103516,90.57129,-4.779053,-156.0059,50.99166,-95.28333,60.475,1
15514,0.07861328000000001,1.023438,-0.001464844,0.1831055,-0.4882813,0.42724609999999996,90.60425,-4.855957,-156.0388,17.35833,0.04166667,0.025,1
15784,0.07714844,1.013184,0.005859375,-0.24414059999999999,0.9765625,-0.24414059999999999,90.54382,-4.850464,-156.0333,17.33333,0.01666667,-0.2333333,1
16010,0.07275391,1.01123,0.015625,-1.098633,-0.7324219,0.1831055,90.09338,-4.833984,-155.8685,50.80833,-95.50833,60.15833,1
16274,0.06933594,1.016602,0.01171875,-1.098633,0.7324219,-0.06103516,89.9231,-4.828491,-155.7312,17.325,0.325,-0.125,1
16490,0.07470703000000001,1.010742,0.01904297,-0.3662109,0.06103516,0.12207029999999999,89.74182,-4.806519,-155.7092,50.93333,-95.50833,60.01667,1
16764,0.07519531,1.014648,0.02294922,0.06103516,-0.4882813,0.0,89.6759,-4.828491,-155.7037,17.36667,0.3833333,0.0,1
17014,0.07568359,1.013672,0.02441406,-0.12207029999999999,0.42724609999999996,0.12207029999999999,89.62646,-4.8614500000000005,-155.6433,50.71667,-95.6,59.85833,1
17314,0.07470703000000001,1.005371,0.02978516,-1.220703,1.586914,-0.12207029999999999,89.47815,-4.768066,-155.3906,50.95833,-95.44167,59.73333,1
17600,0.08056641,1.013672,0.03076172,-1.098633,-2.563477,1.220703,89.29138,-4.954834,-155.3137,50.84167,-95.58334,59.43333,1
17884,0.07519531,1.012207,0.03564453,-0.7324219,-1.403809,-0.3051758,89.23645,-5.009766,-155.7477,17.25833,0.6166667,-0.1083333,1
18144,0.07861328000000001,1.009277,0.04541016,-1.6479489999999999,-0.5493163999999999,0.1831055,89.06067,-4.883423,-155.7422,17.24167,0.7666666999999999,-0.1333333,1
18434,0.07666016,1.01123,0.04248047,-0.6713867,-0.9155272999999999,-0.1831055,88.94531,-4.822998,-155.6653,50.84167,-95.74167,59.1,1
18774,0.07617188,1.008789,0.04345703,-1.403809,-1.037598,0.7324219,89.0387,-4.762573,-155.8191,17.31667,0.6583333,-0.05833333,1
19024,0.07617188,1.015137,0.04052734,-0.9765625,3.540039,0.5493163999999999,89.04419,-4.751587,-155.8246,50.96667,-95.71667,58.7,1
19254,0.07470703000000001,1.007324,0.04931641,-0.7324219,2.197266,0.9765625,88.82996,-4.888916,-155.3412,17.16667,0.8333332999999999,-0.06666667,1
19504,0.08056641,1.012695,0.05517578,-0.4882813,0.42724609999999996,0.0,88.75854,-5.147095,-155.3357,50.51667,-95.95834,58.43333,1
19764,0.09375000000000001,1.008301,0.05126953,0.5493163999999999,0.1831055,0.42724609999999996,88.84094,-5.19104,-155.4181,17.39167,0.85,0.24166669999999998,1
21034,0.08496094,1.008789,0.05517578,-0.12207029999999999,-0.12207029999999999,-0.12207029999999999,89.14307,-4.9823,-154.8853,50.55,-95.79166,58.525,1
21294,0.08105469,1.011719,0.05517578,0.8544921999999999,0.12207029999999999,0.1831055,89.18701,-4.96582,-154.9072,17.425,0.7666666999999999,0.3083333,1
21530,0.08642578000000001,1.015137,0.04443359,0.9765625,-0.7324219,0.793457,89.76929,-5.223999,-155.0171,50.40833,-95.975,59.0,1
21794,0.09326172,1.013184,0.03759766,1.953125,-1.159668,0.0,89.93958,-5.333862,-155.1105,17.21667,0.775,0.09166667,1
22054,0.078125,1.01123,0.03710938,0.9765625,0.1831055,-0.8544921999999999,90.20325,-5.053711,-155.2643,50.69167,-95.59167,59.16667,1
22344,0.07568359,1.020996,0.03125,0.7324219,1.159668,-0.5493163999999999,90.26917,-4.801025,-155.1215,17.30833,0.525,0.375,1
22654,0.07373047,1.014648,0.0234375,0.9765625,-0.5493163999999999,-0.42724609999999996,90.67017,-4.795532,-155.2368,50.84167,-95.525,59.6,1
22974,0.07226563,1.009277,0.01904297,1.037598,1.281738,1.159668,90.802,-4.729614,-155.1819,17.36667,0.6583333,0.7333333,1
23284,0.04345703,1.001953,0.02832031,8.300781,-6.225586,-5.432129,92.06543,-3.504639,-155.5939,17.45,-0.1083333,0.2833333,1
23574,0.02929688,1.021484,-0.00390625,-1.525879,1.586914,-1.220703,91.92261,-2.614746,-155.484,17.225,0.01666667,-0.3833333,1
23894,0.04150391,1.001465,0.03417969,2.624512,-1.8310549999999999,5.187988,90.84045,-3.762817,-155.0555,51.60833,-95.01667,60.35833,1
24214,0.04345703,1.024414,-0.01074219,2.319336,-0.24414059999999999,-2.441406,91.54907,-3.834229,-155.3961,17.15,0.2,0.1083333,1
24444,0.05371094,1.01416,-0.005371094000000001,-3.90625,0.12207029999999999,2.01416,91.43372,-3.80127,-155.5499,17.10833,0.1083333,-1.183333,1
24664,0.08056641,1.008789,0.01074219,3.2958979999999998,-1.586914,0.5493163999999999,90.34058,-4.899902,-155.094,50.65,-95.51667,59.95833,1
24894,0.08984375,1.009277,-0.0004882813,1.037598,-0.06103516,0.8544921999999999,90.82397,-5.240479,-155.0006,17.41667,0.1083333,0.2583333,1
25144,0.04980469,1.027344,-0.01074219,4.333496,-1.525879,-6.652832,91.30737,-4.312134,-155.3741,51.175,-95.04166,60.73333,1
25384,0.06982422,1.001465,0.017089840000000002,-0.12207029999999999,-1.159668,-0.8544921999999999,91.91711,-3.235474,-155.7642,17.59167,-0.2083333,-0.5666667,1
25654,0.05322266,1.018555,0.0078125,-5.615234,0.6713867,3.845215,91.02173,-3.834229,-155.2478,17.15,0.4583333,-0.01666667,1
25880,0.08154297,1.027832,-0.02148438,-1.89209,-2.258301,0.06103516,90.59326,-4.592285,-155.2917,51.16667,-95.25833,60.46667,1
26144,0.07373047,1.016113,-0.006347656,-1.037598,-1.464844,0.9765625,90.54932,-4.713135,-155.5719,17.35833,-0.04166667,-0.5583332999999999,1
26374,0.07861328000000001,1.010254,0.01171875,-0.24414059999999999,1.953125,0.4882813,89.82971,-4.685669,-155.3247,50.88334,-95.475,59.7,1
26694,0.08740234,1.020996,0.01367188,-3.417969,1.8310549999999999,0.4882813,89.39026,-4.87793,-155.6104,17.375,0.775,-0.625,1
26974,0.08349609,1.009277,0.05126953,-4.211426,-0.8544921999999999,-0.3662109,88.66516,-4.899902,-155.3467,17.23333,0.8583333999999999,-0.2916667,1
27214,0.08007813,1.012695,0.06201172,-1.037598,0.6103516,0.0,88.15979,-4.954834,-155.2368,17.15833,0.9583332999999999,-0.30000000000000004,1
27514,0.06787109,1.010742,0.06005859,0.0,1.403809,0.12207029999999999,87.86865,-4.828491,-155.1489,17.275,1.125,0.01666667,1
27784,0.06738281,1.008789,0.06835938,0.42724609999999996,1.037598,0.42724609999999996,88.02795,-4.822998,-155.0446,50.81667,-95.94167,57.7,1
28064,0.07763672,1.013184,0.05419922,1.098633,-0.7324219,0.0,88.396,-4.855957,-154.9457,17.325,0.975,0.15,1
28314,0.07763672,1.009277,0.05371094,-0.4882813,0.06103516,0.3051758,88.65967,-4.833984,-155.0171,17.24167,1.008333,0.01666667,1
28654,0.07617188,1.015137,0.0546875,-0.06103516,0.24414059999999999,0.0,88.78052,-4.828491,-154.9896,17.30833,0.9583332999999999,-0.008333334000000001,1
28894,0.078125,1.009277,0.052734380000000004,-0.42724609999999996,0.0,-0.3662109,88.81897,-4.801025,-154.9841,17.20833,1.091667,0.01666667,1
29104,0.07470703000000001,1.01123,0.06103516,1.464844,-0.793457,-0.4882813,88.90137,-4.685669,-154.9731,50.83333,-95.76667,57.95833,1
29374,0.07861328000000001,1.004395,0.02001953,4.638672,0.42724609999999996,0.3662109,90.09338,-4.707642,-154.9237,50.76667,-95.56667,58.69167,1
29615,0.08251953000000001,1.023438,0.02050781,-0.42724609999999996,1.6479489999999999,-0.5493163999999999,90.57678,-4.575806,-155.0336,17.49167,-0.125,-0.2666667,1
29884,0.06835938,1.027344,-0.006835938000000001,-5.7983400000000005,0.6713867,-1.159668,90.32959,-4.367065,-154.7534,17.26667,1.266667,-0.6833332999999999,1
30170,0.07763672,1.01416,0.04052734,0.9155272999999999,-1.098633,0.24414059999999999,89.42871,-4.817505,-154.8853,50.75,-95.76667,58.56667,1
30454,0.07470703000000001,1.012695,0.046875,0.12207029999999999,0.24414059999999999,0.0,89.63745,-4.812012,-154.9237,17.34167,0.8083332999999999,0.03333333,1
30710,0.07958984,1.014648,0.04736328,-0.1831055,-0.6103516,-0.9765625,89.64844,-4.65271,-155.0391,51.03333,-95.66666,58.025,1
30994,0.07519531,1.013184,0.04785156,1.708984,-0.3051758,1.220703,89.89563,-4.784546,-154.9072,50.85,-95.65,58.74166,1
31294,0.08007813,1.013672,0.04394531,1.220703,-0.4882813,-0.1831055,90.12085,-4.866943,-155.0061,17.29167,0.6333333,0.1833333,1
31534,0.07861328000000001,1.012207,0.03515625,1.220703,0.06103516,0.0,90.45593,-4.795532,-155.1544,51.04167,-95.64167,59.19167,1
31804,0.07617188,1.018555,0.02978516,0.42724609999999996,0.24414059999999999,0.3662109,90.68115,-4.784546,-155.2039,50.94167,-95.54166,59.31667,1
32104,0.07373047,1.01709,0.02441406,0.0,0.7324219,-0.06103516,90.70313,-4.751587,-155.1874,17.34167,0.4666667,-0.1,1
32364,0.07910156,1.009766,0.03564453,1.098633,-0.24414059999999999,-0.24414059999999999,90.59326,-4.751587,-155.127,17.33333,0.48333329999999997,0.1166667,1
32644,0.07617188,1.012695,0.02734375,0.4882813,0.0,0.793457,90.71411,-4.746094,-155.1599,50.91667,-95.5,59.44167,1
32974,0.08056641,1.007813,0.02441406,0.12207029999999999,-0.7324219,0.1831055,90.79102,-4.784546,-155.2148,17.23333,0.5,0.05833333,1
33174,0.07714844,1.012207,0.01660156,1.220703,-0.42724609999999996,0.12207029999999999,90.86243,-4.768066,-155.2972,17.29167,0.3083333,0.0,1
33384,0.07275391,1.009766,0.02294922,0.0,0.793457,0.12207029999999999,90.94482,-4.696655,-155.3247,17.3,0.3083333,0.01666667,1
33634,0.07714844,1.01123,0.022460940000000002,0.5493163999999999,0.24414059999999999,0.8544921999999999,90.91736,-4.779053,-155.1819,17.45833,0.15833329999999998,0.1333333,1
33944,0.08251953000000001,1.014648,0.01855469,-0.8544921999999999,0.24414059999999999,0.06103516,90.91736,-4.916382,-155.1105,50.81667,-95.53333,59.7,1
34194,0.07080078000000001,1.018066,0.01416016,0.12207029999999999,1.159668,0.793457,90.77454,-4.905396,-155.0446,17.25,0.425,0.03333333,1
34424,0.0859375,1.015625,0.020996090000000002,0.0,0.3051758,0.3051758,90.73608,-5.009766,-155.0665,50.81667,-95.575,59.81667,1
34684,0.08007813,1.014648,0.01464844,0.24414059999999999,0.0,0.06103516,90.74158,-4.971313,-155.0006,17.34167,0.30000000000000004,0.04166667,1
34940,0.07958984,1.015137,-0.01367188,3.051758,1.7700200000000001,2.685547,90.82397,-5.015259,-155.0061,50.575,-95.59167,60.25,1
35240,0.09082031,1.01709,-0.008789063,0.42724609999999996,-0.1831055,-0.7324219,91.37878,-4.9823,-155.0391,50.8,-95.30833,60.58333,1
35524,0.06933594,1.020508,-0.002441406,-3.4790039999999998,2.868652,1.708984,90.71411,-5.119629,-154.693,17.125,0.8916666,-0.04166667,1
35764,0.08740234,1.015625,0.011230470000000001,-4.02832,3.234863,-0.12207029999999999,90.52185,-5.223999,-154.671,50.39167,-95.64167,59.96667,1
36034,0.078125,0.9970703,0.03417969,0.6713867,1.464844,0.24414059999999999,90.19775,-5.125122,-154.5886,50.59167,-95.55833,59.98333,1
36324,0.08398438,1.030762,0.030273440000000002,1.7700200000000001,-2.258301,0.0,90.69214,-5.256958,-154.7974,17.31667,-0.04166667,-0.3833333,1
36584,0.07421875,1.015137,0.01416016,-1.098633,0.42724609999999996,-1.220703,90.19775,-4.822998,-154.8193,17.23333,0.2916667,-0.1666667,1
37844,0.08105469,1.009277,0.009277344,0.0,-2.01416,0.6103516,90.49438,-4.9493409999999995,-154.7424,50.7,-95.475,60.05833,1
38114,0.07226563,1.012207,0.02148438,-0.793457,1.89209,0.4882813,90.47241,-5.075684,-154.6985,17.34167,0.2083333,-0.01666667,1
38464,0.08154297,1.013184,0.017089840000000002,0.3051758,-0.3051758,0.6713867,90.31311,-5.267944,-154.5831,50.60833,-95.68333,59.85,1
38704,0.08740234,1.017578,0.02148438,-0.9155272999999999,-0.4882813,0.06103516,90.26917,-5.300903,-154.6436,17.33333,0.2333333,0.05,1
38944,0.08349609,1.014648,0.01953125,-0.42724609999999996,-0.24414059999999999,-0.06103516,90.19775,-5.322876,-154.5721,17.31667,0.2666667,0.0,1
39144,0.08740234,1.015625,0.022460940000000002,-0.3051758,-0.5493163999999999,-0.3662109,90.1593,-5.333862,-154.66,17.29167,0.4333333,0.0,1
39364,0.0859375,1.016602,0.02001953,-0.8544921999999999,-0.3662109,0.3051758,90.04395,-5.361328,-154.6436,50.31667,-95.73333,59.825,1
39604,0.08007813,1.008301,0.01660156,-1.8310549999999999,-0.12207029999999999,0.24414059999999999,89.84619,-5.377808,-154.6381,17.24167,0.5916667,-0.3083333,1
39854,0.09277344,1.012695,0.03564453,-3.2958979999999998,-0.06103516,-0.3662109,89.40125,-5.383301,-154.6381,17.28333,0.5916667,-0.1833333,1
40064,0.08349609,1.007813,0.05517578,-1.403809,1.220703,0.7324219,88.83545,-5.372314,-154.671,50.35,-95.98333,58.225,1
40314,0.09716797,1.005371,0.04785156,-0.24414059999999999,1.586914,0.793457,88.67065,-5.559082,-154.3799,17.175,0.875,0.1416667,1
40594,0.1054688,1.017578,0.03125,0.9155272999999999,3.2958979999999998,0.9765625,89.15405,-5.564575,-154.2041,50.05833,-96.04166,58.46667,1
40854,0.07763672,1.012207,0.04150391,1.7700200000000001,0.24414059999999999,-0.7324219,89.38477,-5.487671,-153.8745,17.28333,0.5083333,0.2083333,1
41104,0.08789063,1.01123,0.03759766,0.5493163999999999,-0.4882813,-0.6103516,89.77478,-5.432739,-154.2151,17.31667,0.5583332999999999,0.05833333,1
41434,0.08935547,1.009277,0.02978516,0.3662109,-0.9765625,-0.793457,89.87366,-5.234985,-154.4238,17.18333,0.7916667,0.425,1
41674,0.09326172,1.020508,0.01416016,-1.6479489999999999,-0.8544921999999999,1.281738,90.39551,-5.383301,-155.072,50.48333,-95.80833,59.30833,1
41984,0.08740234,1.025879,0.0078125,-2.868652,0.6713867,1.586914,90.1593,-5.526123,-155.1434,17.28333,0.40833329999999995,-0.3416667,1
42234,0.09228516,1.013672,0.04052734,-2.380371,0.6713867,1.037598,89.41223,-5.685425,-155.1324,17.275,0.6333333,-0.75,1
42544,0.09033203000000001,1.005859,0.0859375,-2.746582,2.563477,-1.89209,88.41248,-5.592041,-154.5941,17.19167,1.316667,0.08333334,1
42764,0.07958984,1.013184,0.05859375,2.563477,-1.8310549999999999,-0.12207029999999999,88.5553,-5.289917,-154.5886,17.33333,0.8833333,0.35000000000000003,1
42994,0.08935547,1.01123,0.04443359,1.220703,0.0,1.037598,89.00574,-5.344849,-154.7369,17.14167,0.775,0.44166669999999997,1
43204,0.07958984,1.037109,0.022460940000000002,2.502441,-3.723145,3.723145,90.12634,-5.93811,-155.0006,49.79167,-96.19167,58.65,1
43474,0.1171875,1.019043,0.002441406,0.12207029999999999,-0.9155272999999999,0.5493163999999999,90.43945,-6.580811,-155.4346,49.4,-96.35833,58.925,1
43704,0.11083979999999999,1.009766,0.03320313,-1.586914,-2.197266,-1.281738,90.22522,-6.509399,-155.5005,17.225,0.6000000000000001,-0.275,1
43984,0.1030273,1.013184,0.041015630000000004,-1.464844,0.6713867,-0.3662109,89.80774,-6.3555909999999995,-155.5829,17.28333,0.7083332999999999,-0.2166667,1
44210,0.1015625,1.010742,0.04785156,-1.7700200000000001,0.793457,0.06103516,89.39026,-6.328125,-155.3741,49.65833,-96.475,57.85833,1
44474,0.1020508,1.006348,0.05371094,-0.5493163999999999,-0.3662109,0.793457,89.20898,-6.421509,-155.3412,17.25,0.9833333999999999,-0.008333334000000001,1
44684,0.1035156,1.009277,0.04589844,0.5493163999999999,-0.42724609999999996,0.3662109,89.2804,-6.509399,-155.3027,17.25,0.8583333999999999,0.01666667,1
44904,0.1098633,1.016113,0.044921880000000004,-0.24414059999999999,-0.12207029999999999,0.0,89.45068,-6.498413,-155.3467,17.15,0.8666667,0.1,1
45244,0.1132813,1.011719,0.04394531,1.098633,0.24414059999999999,0.3662109,89.69788,-6.580811,-155.2863,17.2,0.65,0.2,1
45514,0.1098633,1.010254,0.03662109,0.9765625,0.24414059999999999,-0.24414059999999999,90.09888,-6.608276,-155.2643,49.36666,-96.46667,58.325,1
45784,0.1103516,1.012207,0.03613281,0.8544921999999999,-0.3662109,-0.1831055,90.23071,-6.564331,-155.3137,17.20833,0.6000000000000001,0.075,1
46034,0.105957,1.01416,0.03271484,0.0,0.12207029999999999,0.3051758,90.30762,-6.531372,-155.3247,49.375,-96.36667,58.64167,1
46344,0.11425779999999999,1.011719,0.03759766,-0.9155272999999999,0.793457,0.42724609999999996,90.04944,-6.641235,-155.1874,17.325,0.7416667,-0.04166667,1
46674,0.1098633,1.007324,0.04736328,-0.24414059999999999,0.06103516,0.0,89.86267,-6.61377,-155.1324,17.31667,0.6916667,-0.01666667,1
46984,0.105957,1.012695,0.04150391,0.8544921999999999,-0.12207029999999999,0.12207029999999999,89.88464,-6.520386,-155.1819,17.2,0.725,0.1416667,1
47224,0.1118164,1.010254,0.03857422,-1.098633,-0.9155272999999999,-0.6103516,89.95605,-6.542358,-155.2643,49.56667,-96.38333,57.95833,1
47464,0.1054688,1.010254,0.04541016,1.342773,2.075195,-1.037598,89.95056,-6.322632,-155.3192,17.275,0.55,0.2333333,1
47704,0.08349609,1.020508,0.04541016,-1.220703,4.089355,-3.112793,90.21423,-5.614014,-154.3304,50.35833,-95.9,58.73333,1
47934,0.06884766,1.004395,0.048828130000000004,-4.455566,3.4790039999999998,-1.037598,89.58252,-5.152588,-153.479,17.25833,1.141667,-0.025,1
48205,0.08203125,1.007324,0.04980469,0.4882813,-2.01416,-0.06103516,89.49463,-5.114136,-153.5175,17.3,0.9416667,0.275,1
48434,0.08105469,1.014648,0.046875,2.075195,-2.258301,-0.3051758,89.85718,-5.042725,-153.6713,17.34167,0.7416667,0.04166667,1
48654,0.07324219,1.016602,0.02978516,3.356934,-1.708984,-0.42724609999999996,90.1593,-4.828491,-153.8416,17.0,0.7416667,0.7333333,1
48920,0.08740234,1.023438,-0.002929688,-0.3051758,-0.12207029999999999,7.202148,91.46667,-5.701904,-154.2151,50.11666,-95.84167,59.79167,1
49204,0.1137695,1.022461,0.02148438,-5.493164,-5.004883,0.6103516,90.82947,-6.350098,-155.3906,17.0,0.625,-0.275,1
49464,0.07763672,1.016113,0.048828130000000004,0.12207029999999999,1.708984,-2.441406,90.46143000000001,-5.701904,-156.2036,17.18333,0.44166669999999997,0.15,1
49745,0.07763672,1.027832,0.02294922,1.6479489999999999,3.78418,-3.2958979999999998,90.74707,-4.9493409999999995,-154.9896,51.09167,-95.59167,58.86666,1
50014,0.07714844,1.018066,0.02587891,-1.8310549999999999,0.0,-1.220703,90.76904,-4.553833,-154.5502,17.36667,0.36666669999999996,-0.31666669999999997,1
50264,0.06542969,1.015137,0.02734375,-0.6713867,1.8310549999999999,0.6713867,90.28564,-4.273682,-154.4623,51.48333,-95.35,58.95833,1
50564,0.07177734,1.016602,0.02050781,-0.793457,0.3051758,0.06103516,90.13184,-4.432983,-154.1327,17.35833,0.675,-0.1166667,1
50904,0.06542969,1.01416,0.041015630000000004,-0.3662109,0.5493163999999999,0.3051758,89.89563,-4.301147,-154.0887,17.33333,0.6916667,0.04166667,1
51214,0.06982422,1.012207,0.04296875,0.0,0.4882813,0.7324219,89.96155,-4.394531,-154.0833,17.26667,0.6666667,0.03333333,1
51440,0.07177734,1.013672,0.03564453,0.3051758,0.24414059999999999,0.6713867,90.03296,-4.482422,-154.0338,51.325,-95.43333,58.875,1
51694,0.06933594,1.018066,0.03173828,0.6713867,-0.12207029999999999,0.6713867,90.12634,-4.5593259999999995,-154.0283,17.25,0.5750000000000001,0.1083333,1
51934,0.07080078000000001,1.01416,0.02734375,1.098633,-0.06103516,0.24414059999999999,90.23621,-4.592285,-154.0613,51.275,-95.50833,59.08333,1
52164,0.07275391,1.01123,0.03564453,-0.3051758,-0.12207029999999999,0.0,90.24719,-4.592285,-154.0393,17.30833,0.5416667,0.03333333,1
52444,0.07128906,1.016113,0.02734375,0.12207029999999999,-0.06103516,0.24414059999999999,90.26367,-4.553833,-154.0778,17.325,0.4666667,0.01666667,1
52654,0.0703125,1.010742,0.02783203,-0.3051758,0.0,0.42724609999999996,90.24719,-4.570313,-154.0338,17.325,0.5333333,-0.05,1
52884,0.07470703000000001,1.01416,0.03466797,-0.1831055,0.1831055,0.1831055,90.12085,-4.608765,-153.9679,17.325,0.5416667,0.01666667,1
54134,0.06152344,1.014648,0.04296875,0.1831055,-0.5493163999999999,0.3662109,89.81323,-3.9935300000000002,-153.8196,17.30833,0.6416666999999999,0.06666667,1
54344,0.06005859,1.015625,0.03613281,0.793457,0.06103516,0.42724609999999996,89.94507,-4.031982,-153.8086,17.33333,0.5916667,0.1166667,1
54574,0.0625,1.016113,0.03076172,0.3662109,-0.12207029999999999,0.42724609999999996,90.15381000000001,-4.174805,-153.8196,51.48333,-95.35833,58.99166,1
54844,0.06591797,1.015625,0.03320313,0.6713867,-0.4882813,0.0,90.26367,-4.191284,-153.8745,17.325,0.49166669999999996,0.1166667,1
55114,0.0703125,1.007813,0.02783203,1.281738,-0.9765625,0.5493163999999999,90.46143000000001,-4.224243,-153.9514,17.31667,0.35000000000000003,0.08333334,1
55384,0.06542969,1.01709,0.02441406,-0.06103516,0.3051758,0.0,90.57129,-4.262695,-153.8965,51.5,-95.225,59.51667,1
55654,0.07226563,1.013184,0.02197266,1.098633,0.3051758,0.3051758,90.60974,-4.262695,-153.847,17.475,0.3833333,0.05,1
55914,0.06347656,1.006836,0.03955078,-1.586914,0.6103516,0.5493163999999999,90.3186,-4.185791,-153.8855,17.21667,0.5666667,0.24166669999999998,1
56214,0.07275391,1.022949,0.006835938000000001,-0.24414059999999999,-0.06103516,-0.12207029999999999,90.67566,-4.317627,-153.7592,17.29167,0.5,-0.225,1
56584,0.0703125,1.020996,0.0,-0.6103516,-0.793457,0.0,90.65918,-4.279175,-153.7976,51.35,-95.16666,59.675,1
56844,0.06298828000000001,1.009277,0.03613281,1.220703,-0.06103516,1.525879,90.43396,-4.32312,-153.88,17.36667,0.4333333,0.2916667,1
57094,0.08203125,1.008789,0.01806641,1.708984,-0.12207029999999999,2.685547,90.84595,-4.850464,-153.5559,50.74166,-95.3,60.15,1
57334,0.07421875,1.018066,0.01074219,2.929688,-0.8544921999999999,0.0,91.34583,-5.009766,-153.4021,17.4,-0.325,0.1916667,1
57574,0.07666016,1.032715,-0.01806641,1.220703,-1.220703,-2.929688,91.64795,-4.713135,-153.5779,50.95,-95.18333,60.96667,1
57804,0.06152344,1.009766,-0.001464844,0.0,3.112793,-1.342773,91.49963,-4.235229,-153.6548,17.16667,0.2666667,0.15833329999999998,1
58100,0.0625,1.02002,-0.007324219000000001,3.967285,-0.1831055,3.417969,91.90613,-4.092407,-153.3252,51.44167,-94.70834,61.475,1
58394,0.06542969,1.020508,-0.01806641,-0.8544921999999999,-0.24414059999999999,0.4882813,92.0874,-4.235229,-153.7537,51.44167,-94.71667,61.425,1
58635,0.03857422,1.010742,-0.03222656,-0.5493163999999999,1.586914,-0.12207029999999999,91.61499,-4.158325,-153.49,17.35,-0.4333333,-0.1833333,1
58924,0.0703125,1.019043,-0.01464844,-0.4882813,0.7324219,0.0,91.31287,-4.180298,-153.4186,51.45,-94.75,61.14167,1
59194,0.06396484,1.016602,-0.009277344,-0.1831055,-1.159668,0.0,91.16455,-4.185791,-153.3856,51.50834,-94.78333,61.28333,1
59494,0.06347656,1.012207,-0.01025391,0.1831055,-0.4882813,0.1831055,91.08765,-4.191284,-153.3746,17.29167,-0.1916667,0.04166667,1
59734,0.06494141,1.018555,-0.01318359,-0.1831055,0.9765625,0.42724609999999996,91.00525,-4.180298,-153.3801,51.51667,-94.76667,61.25,1
60004,0.06738281,1.015625,-0.01074219,-0.42724609999999996,0.4882813,0.1831055,90.8075,-4.196777,-153.4515,51.38334,-94.725,60.9,1
60320,0.06347656,1.010742,-0.005371094000000001,0.12207029999999999,0.12207029999999999,0.3051758,90.70313,-4.180298,-153.5284,51.525,-94.9,61.04167,1
60614,0.06591797,1.016602,-0.01171875,0.0,-0.42724609999999996,-0.12207029999999999,90.8075,-4.130859,-153.6548,51.625,-94.86667,60.95833,1
60920,0.06103516,1.012207,-0.008789063,0.0,0.12207029999999999,0.12207029999999999,90.74707,-4.141846,-153.6493,51.70833,-94.8,60.975,1
61284,0.06542969,1.01709,-0.01171875,-0.6713867,0.24414059999999999,-0.3662109,90.66467,-4.119873,-153.6108,17.30833,-0.1,-0.05,1
61494,0.06591797,1.010254,-0.002441406,-0.8544921999999999,0.4882813,-0.06103516,90.45593,-4.037476,-153.512,17.25,-0.09166667,-0.03333333,1
61714,0.05908203,1.016602,-0.0078125,-1.403809,0.0,0.24414059999999999,90.36255,-4.070435,-153.4625,17.35833,-0.06666667,-0.1916667,1
61924,0.028808590000000002,1.0,0.02392578,5.67627,-5.004883,-0.42724609999999996,90.43945,-3.938599,-153.6493,17.60833,-0.675,-0.2833333,1
62134,0.03662109,1.007813,0.024902340000000002,-1.953125,1.953125,-1.7700200000000001,89.93958,-3.630981,-153.6218,51.98333,-94.56667,60.28333,1
62374,0.08007813,1.017578,0.01416016,-1.403809,0.24414059999999999,1.403809,89.57153,-3.510132,-153.2428,17.4,-0.15833329999999998,-0.7166667,1
62634,0.0703125,1.013184,0.04150391,2.01416,-0.8544921999999999,-0.06103516,88.70911,-3.565063,-153.1549,17.36667,0.1666667,-0.30000000000000004,1
62930,0.03125,1.0,0.03515625,0.9765625,-0.9155272999999999,2.380371,88.57178,-3.724365,-153.1,51.78333,-95.00833,59.23333,1
63224,0.04833984,1.009766,0.028808590000000002,0.6103516,2.258301,-1.159668,89.34631,-3.80127,-153.2428,51.78333,-94.925,59.63334,1
63484,0.06152344,1.019043,0.02294922,-0.6713867,-3.967285,-2.197266,89.15955,-3.3728029999999998,-153.1934,17.31667,0.5583332999999999,-0.4166667,1
63754,0.04638672,1.012207,0.02832031,0.7324219,-0.3051758,0.6713867,88.81897,-3.14209,-153.3032,52.45833,-94.81667,59.13334,1
64184,0.0546875,1.015137,0.02197266,0.9155272999999999,-0.3051758,0.6713867,89.14856,-3.4002689999999998,-153.111,17.325,0.4666667,0.06666667,1
64444,0.052734380000000004,1.015137,0.024902340000000002,1.037598,0.3662109,0.7324219,89.40125,-3.614502,-153.0121,51.96667,-94.94167,59.58333,1
64714,0.05371094,1.018066,0.0234375,1.159668,3.723145,2.441406,89.55505,-3.773804,-152.8363,17.30833,0.2833333,0.1083333,1
65000,0.07421875,1.008789,0.01416016,-0.06103516,-1.342773,2.685547,89.69238,-4.394531,-152.6331,17.38333,0.44166669999999997,0.325,1
65274,0.06738281,1.01416,0.01464844,-0.7324219,-0.5493163999999999,-0.5493163999999999,89.83521,-4.498901,-152.5616,17.26667,0.44166669999999997,0.04166667,1
65644,0.07568359,1.019531,0.0,-0.8544921999999999,1.159668,-0.9765625,90.13733,-4.273682,-152.3474,51.125,-95.19167,60.13334,1
65914,0.02001953,1.027832,0.04052734,2.929688,0.8544921999999999,4.02832,89.85718,-4.2462159999999995,-152.0947,17.60833,0.1833333,0.08333334,1
66154,0.056640630000000004,1.011719,0.01904297,-2.13623,3.723145,-3.723145,89.80225,-3.641968,-152.0728,17.34167,0.3333333,-0.24166669999999998,1
66364,0.02929688,0.9921875,0.02050781,-5.187988,-1.159668,-1.953125,88.8739,-2.927856,-152.5397,52.48333,-94.725,58.94167,1
66604,0.03173828,1.018066,0.04394531,2.258301,-3.540039,0.6713867,88.7915,-2.850952,-152.5342,17.46667,0.1833333,0.06666667,1
66844,0.04052734,1.015137,0.048828130000000004,-2.075195,0.4882813,0.9765625,89.05518,-3.361816,-152.9077,52.16667,-94.925,59.075,1
67104,0.04931641,1.009277,0.05224609,0.1831055,-2.319336,-0.3051758,88.88489,-3.317871,-153.0341,17.25833,0.75,0.1,1
67370,0.04394531,1.013672,0.0390625,0.1831055,-0.5493163999999999,0.5493163999999999,89.21997,-3.22998,-153.2703,52.28333,-94.88333,58.65,1
67664,0.060546880000000004,1.044922,0.01611328,-6.469727,-0.3662109,0.0,88.80249,-3.2958979999999998,-153.2648,52.16667,-95.03333,58.04167,1
67944,0.03808594,1.076172,0.04345703,-27.89307,0.12207029999999999,-3.540039,85.94604,-3.158569,-152.6715,18.825,0.7916667,-6.008333,1
68194,0.02148438,1.056152,0.30126949999999997,-56.03027,0.12207029999999999,-0.06103516,73.47656,-2.504883,-153.2758,52.875,-94.9,41.61666,1
68464,0.015625,0.7734375,0.4624023,4.760742,5.493164,1.6479489999999999,64.7699,-2.675171,-153.1769,52.80833,-93.64167,35.4,1
68764,-0.06542969,0.8857421999999999,0.4013672,33.3252,3.540039,1.159668,68.45581,-2.779541,-152.4463,15.01667,5.508333,6.025,1
69014,0.21875000000000003,1.027344,0.234375,-6.896973,-76.9043,-15.74707,75.47058,-3.306885,-164.707,53.075,-94.21667,38.48333,1
69274,0.26220699999999997,1.129883,0.2817383,9.94873,-19.04297,-8.056641,76.81091,-1.653442,178.8794,54.79167,-91.80833,32.28333,1
69590,-0.08984375,1.023438,0.2670898,2.990723,-78.91846,-47.97363,77.56348,0.06591797,163.0371,54.09167,-87.66666,22.75833,1
69894,-0.04833984,1.01123,0.08496094,4.089355,-63.96484,-5.493164,77.17896,2.406006,140.5975,18.40833,-0.008333334000000001,0.9166667,1
71255,0.03466797,0.9946288999999999,0.105957,-6.774902,-31.49414,2.563477,75.48706,-0.2362061,118.6194,19.0,0.9,1.408333,1
71444,0.007324219000000001,0.8325195,0.5698242,10.86426,18.18848,-27.03857,76.15723,1.63147,115.9003,15.075,5.65,0.1666667,1
71664,0.015625,0.8774413999999999,0.25488279999999996,10.37598,11.96289,27.64893,77.88757,-0.9118651999999999,117.3889,14.325,3.075,0.9916666999999999,1
71884,0.1401367,1.071289,0.10693359999999999,-5.432129,20.50781,2.990723,79.20593,-2.25769,121.4868,36.725,-84.6,12.3,1
72144,0.1328125,1.004883,0.3618164,-8.422852,4.150391,-3.2958979999999998,79.21143000000001,-5.707397,122.4371,14.00833,4.45,0.1416667,1
72394,-0.005859375,0.8647461,0.1870117,-14.09912,-7.507324,-13.18359,78.40942,-1.170044,120.5255,15.29167,2.258333,-1.191667,1
72624,0.06103516,1.50293,0.3007813,15.31982,24.04785,-23.86475,76.26709,-0.802002,119.0643,16.88333,6.175,-0.06666667,1
72890,0.1474609,0.8432617,0.18603519999999998,8.361816,8.422852,13.24463,78.21716,-2.318115,119.9323,36.18333,-81.85,11.275,1
73154,0.21386719999999998,1.150879,0.08251953000000001,1.281738,25.20752,7.141113,77.72278,-2.230225,122.4097,26.325,6.533333,0.8416665999999999,1
73444,0.02392578,0.7812500000000001,0.3203125,-3.356934,7.019043,-25.02441,78.36548,-3.779297,122.7942,14.63333,3.083333,-0.7083332999999999,1
73714,0.060546880000000004,1.196777,0.1850586,-11.41357,-18.85986,-1.6479489999999999,75.15747,-2.345581,118.4161,35.44167,-78.775,9.733334,1
73984,-0.02392578,0.9335937999999999,0.3134766,-9.338379,-12.63428,13.61084,77.43164,0.8843994,118.8226,13.61667,5.233333,0.2583333,1
74224,0.1811523,0.9448242,0.1079102,1.8310549999999999,9.338379,-3.2958979999999998,77.87109,-3.043213,121.322,36.56667,-80.3,12.09167,1
74524,0.1118164,0.8984375,0.3857422,-3.173828,8.361816,-14.46533,77.27234,-6.317139,123.1073,35.74166,-79.90833,11.54167,1
74810,-0.05419922,0.9223633,0.1308594,-1.342773,-31.12793,4.516602,74.9707,-1.829224,119.8004,35.88334,-77.73333,9.508333,1
75114,0.004882813000000001,0.8652344,0.3041992,7.93457,-6.774902,20.50781,78.09631,0.8569336,117.3724,36.55833,-78.49167,10.36667,1
75454,0.1728516,0.9565429999999999,0.09130859,4.699707,25.5127,-0.9155272999999999,78.05237,-2.922363,122.9865,17.55833,-0.48333329999999997,1.375,1
75674,-0.09765625,1.022461,0.49755859999999996,-10.86426,-4.02832,31.92139,79.05212,-6.328125,123.9038,16.21667,5.866667,0.36666669999999996,1
75904,-0.02294922,0.828125,0.2270508,-2.746582,-10.49805,-29.78516,77.77222,-3.592529,124.3762,14.25,2.866667,-2.025,1
76114,0.03759766,1.10791,-0.01855469,-2.075195,-11.59668,-6.713867,74.4873,-2.548828,119.729,36.34167,-77.01667,8.283334,1
76344,-0.15625,0.8530272999999999,0.3212891,15.99121,-12.75635,20.26367,77.25037,0.3900146,118.3008,13.76667,3.708333,0.5083333,1
76624,0.08886719,0.8652344,0.184082,6.347656,11.90186,8.911133,78.68958,-4.251709,120.6683,15.70833,1.433333,1.291667,1
76844,-0.02539063,1.17334,0.4370117,-6.530762,-5.737305,34.60693,79.56848,-6.729126,123.382,35.85833,-81.28333,10.35833,1
77084,-0.001953125,0.8452147999999999,0.2773438,-6.896973,4.699707,-28.50342,77.75574,-4.048462,125.3375,15.1,2.783333,-2.241667,1
77324,-0.04638672,0.8847655999999999,0.1533203,-4.211426,-24.78027,8.605957,74.71252,-2.389526,123.4698,19.3,1.425,-0.40833329999999995,1
77544,-0.07714844,0.9287109,0.3769531,-9.216309,-9.399414,11.71875,76.94275,-0.24719239999999998,121.0968,14.50833,4.558333,1.0,1
77854,0.1645508,0.8984375,0.10107419999999999,10.98633,15.31982,-3.662109,77.27783,-4.394531,124.0027,38.50834,-81.91666,8.941667,1
78144,0.05908203,0.9208984,0.38134769999999996,-2.624512,19.9585,-9.460449,77.37122,-7.366333,127.8644,13.60833,4.75,-0.125,1
78454,-0.03662109,0.8706054999999999,0.1640625,-4.882813,-24.35303,8.422852,74.45435,-2.878418,128.8641,40.95833,-80.625,8.333333,1
78754,-0.08349609,0.9233397999999999,0.3710938,-9.643555,-2.319336,6.652832,77.19543,0.1483154,126.6888,42.68333,-81.25,9.216666,1
79024,0.1000977,0.8466796999999999,0.16601559999999999,4.760742,23.37646,14.5874,77.57446,-3.312378,131.3745,15.525,1.975,1.158333,1
79284,0.02539063,1.159668,0.3432617,2.441406,-14.28223,30.57861,78.71704,-6.366577,134.5056,16.19167,6.333333,-2.158333,1
79584,-0.09277344,0.8647461,0.10498049999999999,-8.361816,6.652832,-9.94873,76.15173,-2.059937,137.0764,15.3,2.325,-0.3416667,1
79924,0.2739258,1.0698239999999999,0.5864258,22.94922,14.22119,-30.94482,75.87158,-0.5493163999999999,133.6597,16.03333,5.133333,-1.716667,1
80114,0.08544922,0.8046875,0.2734375,1.098633,13.18359,29.84619,77.09106,-2.340088,134.9231,15.05833,2.116667,0.3333333,1
80344,0.10693359999999999,1.051758,0.04638672,8.728026999999999,8.300781,3.356934,76.79443,-3.900146,142.0752,46.48333,-85.31667,15.34167,1
80584,0.03564453,0.9482421999999999,0.3510742,5.310059,24.90234,-13.42773,76.93176,-6.503906,144.5746,14.35833,4.233333,-1.3,1
80854,-0.01660156,0.7729492,0.1777344,-16.41846,-6.591797,-4.089355,75.09155,-2.301636,145.1294,17.425,2.366667,-0.9500000000000001,1
81064,0.01611328,0.8276367,0.5244141,25.20752,0.12207029999999999,-16.96777,75.91553,-0.2416992,142.3169,49.34167,-83.09167,14.58333,1
81304,0.1542969,0.8354492,0.2583008,8.117676,24.29199,30.88379,76.36597,-2.905884,144.9481,14.81667,2.716667,0.0,1
81560,0.121582,1.574219,0.14697269999999998,16.78467,-4.821777,34.36279,77.59094,-4.411011,151.9299,48.6,-87.79166,20.275,1
81824,0.01269531,0.855957,0.269043,-4.455566,16.11328,-29.60205,77.23938,-5.625,153.2867,14.89167,2.766667,-1.825,1
82084,-0.02978516,1.1010739999999999,0.1230469,-3.662109,-23.86475,2.01416,73.78418,-3.076172,150.9906,50.175,-84.65833,17.28333,1
82374,0.15869139999999998,0.8208008,0.30224609999999996,6.469727,13.5498,24.53613,76.88782,-1.543579,149.9799,14.80833,2.816667,-0.275,1
82684,0.05712891,1.145996,0.07128906,1.89209,16.23535,5.981445,76.19019,-3.147583,158.4833,52.34167,-87.25,23.04167,1
82984,-0.11279299999999999,0.7993163999999999,0.3129883,-12.39014,-0.4882813,-30.0293,76.5033,-3.80127,159.6259,52.675,-86.64167,22.475,1
83244,-0.06640625,0.9042969,0.1357422,0.6103516,-34.66797,7.507324,74.13574,-2.252197,155.6378,20.65833,-1.491667,2.183333,1
83510,0.03662109,0.8076171999999999,0.3349609,5.737305,2.807617,25.87891,76.54175,-0.5548096,153.7646,14.15833,3.525,0.65,1
83814,0.1230469,1.038574,0.04443359,8.789063,19.04297,4.150391,76.51428,-3.47168,160.7135,26.93333,0.8833333,2.241667,1
84114,-0.02441406,0.8139647999999999,0.2670898,-6.652832,13.24463,-28.07617,77.35474,-4.866943,163.0865,14.991670000000001,2.233333,-1.441667,1
84444,-0.004882813000000001,1.161133,0.12207029999999999,-6.774902,-10.31494,-3.845215,73.79517,-2.532349,157.6428,26.20833,11.50833,1.733333,1
84694,0.1674805,0.8554687999999999,0.2397461,4.821777,8.544922,27.28271,76.57471,-1.587524,157.5494,52.875,-86.29166,22.46667,1
84934,0.1689453,0.8950195,0.1298828,1.464844,17.21191,-0.6103516,75.47607,-3.339844,160.9167,19.025,-0.15833329999999998,1.408333,1
85174,0.06347656,0.890625,0.3369141,5.493164,11.59668,-29.23584,76.34399,-5.663452,162.3615,51.50834,-88.35833,24.6,1
85404,-0.01855469,0.8203125,0.16259769999999998,-13.5498,-6.835938,0.06103516,74.28955,-1.851196,160.5157,18.65833,2.383333,-0.7833333,1
85684,-0.1484375,1.42041,-0.028808590000000002,9.70459,-3.967285,-19.89746,73.63586,-2.147827,157.8351,17.8,10.65833,-0.3333333,1
85910,0.1640625,0.9003905999999999,0.1630859,-2.258301,30.63965,21.72852,75.88806,-3.504639,161.3232,52.6,-87.33334,24.175,1
86174,0.09423828000000001,1.117188,0.1264648,1.6479489999999999,-3.173828,1.403809,75.41565,-4.367065,165.6024,28.18333,10.18333,-1.8333329999999999,1
86384,0.3271484,0.9458008,0.394043,-1.464844,6.286621,-21.48438,76.04736,-7.185059,163.8007,13.49167,4.741667,-0.7166667,1
87590,-0.01074219,0.7895508,0.16259769999999998,-10.13184,-13.91602,-6.774902,74.59167,-2.351074,162.4384,53.11666,-86.69167,24.18333,1
87894,0.02294922,1.509277,0.2475586,14.5874,-5.859375,-29.60205,74.06433,-2.537842,159.2468,20.75833,7.75,-1.5833329999999999,1
88144,0.09277344,0.9062500000000001,0.1411133,3.112793,10.55908,13.06152,75.58044,-2.576294,162.0483,14.175,2.033333,0.44166669999999997,1
88414,0.1879883,1.1166989999999999,0.5473633,19.53125,-22.03369,36.19385,76.26709,-6.102905,163.1909,50.89167,-89.325,26.05833,1
88694,0.03320313,0.7939453,0.2573242,-2.380371,-13.06152,-29.29688,75.89355,-4.075928,162.0648,13.525,2.883333,-2.15,1
88974,0.02587891,1.283691,-0.006347656,10.62012,5.981445,-13.67188,73.54797,-2.796021,158.1207,18.5,7.483333,2.641667,1
89244,0.1459961,0.8554687999999999,0.1733398,0.1831055,24.59717,23.55957,76.81091,-2.026978,161.3837,14.14167,3.066667,-1.008333,1
89614,0.184082,1.15918,0.4614258,-20.50781,3.356934,3.967285,76.72852,-7.009277,165.6024,51.675,-89.93333,27.33333,1
89864,-0.008300781,0.9096679999999999,0.1435547,-12.146,-21.42334,-17.39502,76.02539,-2.70813,163.493,14.44167,2.65,-1.2,1
90124,0.07177734,1.164063,0.1181641,0.793457,-10.98633,-6.164551,73.66882,-3.208008,160.2631,23.19167,12.18333,2.375,1
90334,0.18212889999999998,0.8173828,0.20947269999999998,4.516602,19.71436,28.07617,77.26135,-1.516113,160.0983,54.6,-87.075,25.33333,1
90564,0.1279297,1.002441,0.0546875,6.9580079999999995,19.47021,4.02832,76.745,-3.317871,165.5969,19.48333,-1.041667,2.275,1
90814,-0.02148438,0.8730469,0.2910156,3.967285,9.033203,-31.43311,76.58569,-5.888672,164.8663,52.575,-89.01667,26.45833,1
91054,-0.03222656,0.8291016,0.1533203,-5.493164,-11.04736,1.89209,75.16296,-2.213745,162.356,20.79167,1.725,-0.975,1
91340,-0.22216799999999998,1.049805,0.3920898,-12.45117,4.455566,0.06103516,76.27258,0.8789062999999999,159.7028,56.15,-85.49167,24.525,1
91634,0.1459961,0.9584961,0.07519531,4.150391,19.40918,5.187988,76.37146,-3.14209,165.9375,55.1,-88.025,27.73333,1
91874,-0.04345703,0.8745117,0.5024413999999999,-14.34326,-16.11328,17.76123,76.81091,-6.240234,167.6569,16.125,5.025,-0.275,1
92164,0.02832031,0.7797852,0.1445313,-11.96289,-26.9165,-5.981445,74.21814,-1.9885249999999999,163.2678,54.98333,-86.21667,23.70833,1
92434,-0.1401367,0.9780272999999999,0.38085939999999996,-17.39502,-1.89209,10.49805,75.89355,0.38452149999999996,162.2736,56.825,-85.30833,24.575,1
92734,0.15625,0.8242187999999999,0.1479492,10.19287,12.57324,11.90186,75.92651,-3.268433,163.6743,14.93333,1.225,0.4666667,1
92974,0.011230470000000001,0.8525391,0.5126953,-9.338379,-15.13672,13.85498,76.44287,-7.168579,166.1627,51.51667,-89.99167,26.50833,1
93244,0.02392578,0.7680663999999999,0.1259766,-14.4043,-6.591797,-0.1831055,73.53149,-2.993774,165.097,54.38334,-87.13333,24.20833,1
93560,-0.2768555,0.9199219,0.32519529999999996,-7.446289,3.417969,10.74219,75.32227,1.104126,163.7732,56.55833,-86.25833,25.59167,1
93864,0.1323242,0.9863280999999999,0.08105469,9.643555,28.50342,2.929688,74.88281,-1.972046,170.2496,33.70833,4.708333,-0.05833333,1
94234,-0.140625,0.7294921999999999,0.28662109999999996,-8.789063,-12.93945,-34.79004,74.28955,-3.9990229999999998,168.4039,13.275,2.433333,-0.8416665999999999,1
94430,0.09375000000000001,1.179688,-0.03710938,9.094238,0.1831055,-6.9580079999999995,72.57568,-1.801758,160.3894,54.94167,-86.28333,23.21667,1
94684,0.07373047,0.7490234,0.3818359,-1.220703,-4.089355,28.44238,74.75098,0.5657959,160.9277,14.05833,2.45,1.241667,1
94944,0.06787109,0.7924804999999999,0.159668,-3.2958979999999998,8.789063,3.234863,74.8114,-3.202515,164.6796,19.64167,2.05,-0.075,1
95164,0.2714844,0.9091796999999999,0.42041019999999996,-9.460449,6.896973,-9.70459,75.14099,-7.509155,164.306,52.43333,-89.9,26.3,1
95404,-0.02539063,0.8173828,0.1293945,-11.2915,-11.84082,-9.765625,74.26758,-2.664185,163.1744,16.31667,2.708333,-1.091667,1
95644,0.02832031,1.29248,-0.015136720000000001,19.59229,-3.356934,-20.75195,72.83936,-2.69165,161.1365,17.00833,8.1,1.425,1
95864,0.15820309999999999,0.7753905999999999,0.3193359,4.150391,-10.55908,26.55029,75.30029,0.1263428,161.1639,14.31667,2.375,0.4666667,1
96084,0.1889648,1.1791989999999999,0.1445313,-5.92041,7.8125,14.52637,74.68506000000001,-2.999268,164.6356,25.8,7.675,-0.15833329999999998,1
96380,-0.06347656,0.7534179999999999,0.3085938,-10.74219,4.821777,-27.16064,74.64661,-4.378052,164.1467,55.94167,-87.35833,24.08333,1
96664,-0.08349609,1.39209,-0.09619141,22.03369,-12.20703,-16.41846,72.82288,-2.351074,159.8346,56.04167,-85.66666,21.68333,1
96964,0.17041019999999998,0.7666016,0.3530273,6.347656,16.05225,31.25,76.21216,-0.0604248,160.5432,13.38333,3.383333,0.2666667,1
97204,0.02050781,1.128906,0.06787109,2.929688,-4.089355,6.530762,75.8551,-3.306885,169.53,56.43333,-89.14167,29.6,1
97474,-0.1416016,0.7739258,0.296875,-15.07568,-8.239746,-24.90234,76.14624,-4.96582,169.92,55.58333,-88.96667,28.45,1
97774,0.015625,0.9462891,0.06152344,4.089355,-9.094238,7.263184,74.13025,-3.477173,166.6791,21.48333,-1.133333,1.183333,1
98034,0.18212889999999998,0.8203125,0.2802734,9.82666,8.789063,29.78516,77.23938,-2.070923,167.0856,15.24167,3.133333,-0.2083333,1
98304,0.1210938,1.103516,0.03759766,1.953125,28.86963,4.272461,76.71753,-4.185791,-179.7968,25.66667,3.0,2.491667,1
98674,-0.052734380000000004,0.9140625,0.1713867,-6.286621,-31.37207,-19.59229,76.51428,-2.290649,176.9458,56.20833,-87.85833,34.04167,1
98914,0.09228516,1.015625,-0.02783203,17.39502,3.90625,11.77979,76.20117,-3.169556,174.0344,22.55833,12.11667,-2.35,1
99174,0.06347656,0.8261719,0.2675781,5.432129,61.76758,38.75732,76.46484,-2.438965,-179.7528,15.725,2.975,0.8166667,1
99394,0.20214839999999998,0.8349609,0.07617188,20.50781,72.20459,16.29639,77.34924,-6.399536,-153.6273,49.90833,-92.81667,51.31667,1
99634,-0.04296875,0.8940429999999999,0.17041019999999998,0.3662109,91.61377,2.319336,75.00366,-6.49292,-138.5046,14.29167,3.883333,-1.616667,1
99874,-0.2416992,0.9409179999999999,0.1489258,5.554199,53.89404,28.25928,72.29004,-4.740601,-121.5417,17.08333,1.591667,4.25,1
100104,0.3916016,0.9233397999999999,0.2763672,17.27295,82.70264,37.53662,78.0249,-3.427734,-101.9531,15.61667,2.358333,1.5,1
100400,0.1137695,0.8925780999999999,0.1196289,6.896973,105.5298,16.35742,77.98645,-5.894165,-66.89026,8.75,-93.9,69.91666,1
100694,-0.159668,0.9936522999999999,0.3237305,-12.57324,64.45313,-10.55908,79.43115,-7.602539,-48.98804,-0.47500000000000003,-91.33334,67.25833,1
100944,-0.08349609,0.7871094,0.06738281,-13.85498,2.624512,4.272461,76.10229,-4.174805,-42.33582,19.34167,1.491667,-1.216667,1
101224,-0.1679688,1.038086,0.3920898,-11.47461,23.80371,9.521484,76.55823,-1.340332,-39.91333,-2.191667,-93.225,60.875,1
101514,0.06005859,0.9223633,0.121582,13.91602,41.62598,5.187988,77.88757,-5.778809,-24.52148,18.23333,-1.316667,2.766667,1
101824,0.05175781,0.9414062999999999,0.22949219999999998,6.530762,34.24072,-34.48486,78.6731,-8.151855,-18.39661,-14.175,-86.775,53.90833,1
102114,0.06347656,1.174805,0.06738281,0.3051758,-30.45654,-2.441406,76.56921,-4.295654,-23.49426,28.73333,12.79167,-1.041667,1
102444,0.1713867,0.7910155999999999,0.2529297,6.164551,31.31104,29.78516,78.48633,-2.510376,-18.58337,13.43333,2.025,0.45,1
102740,0.06640625,1.09375,-0.1518555,15.38086,15.50293,1.220703,77.75574,-4.207764,-7.311401,16.15,10.91667,-2.341667,1
103114,0.006347656,0.7358397999999999,0.1689453,-12.57324,-12.51221,-6.530762,75.66284,-1.796265,-12.1344,-16.15,-89.025,45.00834,1
103374,0.06494141,1.7954100000000002,0.6162109,10.98633,9.399414,-31.67725,75.56946,-1.6479489999999999,-17.02332,19.26667,6.791667,-1.816667,1
104604,-0.2163086,0.8320312999999999,0.2734375,-0.7324219,-1.342773,16.11328,77.43164,1.09314,-15.64453,13.13333,2.766667,0.2083333,1
104814,0.09423828000000001,0.8095703,0.1196289,-1.586914,3.2958979999999998,-1.037598,76.56921,-1.889648,-12.95837,19.26667,1.066667,1.3333329999999999,1
105035,0.23730469999999998,1.031738,0.37988279999999996,-19.53125,5.249023,1.586914,76.31653,-6.542358,-11.10718,-12.45,-83.88333,44.6,1
105264,0.1196289,0.7290038999999999,0.1567383,-11.77979,-28.32031,-15.31982,75.05859,-2.021484,-15.96313,15.71667,2.4,-0.4,1
105514,0.02197266,1.212891,-0.1831055,10.98633,-21.1792,-16.23535,73.60291,-2.411499,-19.86877,16.90833,7.566667,2.35,1
105734,0.05615234,0.7958984,0.08642578000000001,8.422852,39.48975,29.47998,76.76147,-2.06543,-17.60559,-6.275,-86.75833,50.25834,1
105974,0.19384769999999998,1.169922,0.005371094000000001,17.33398,14.5874,8.972168,76.13525,-3.076172,-14.19434,23.95,11.825,-3.275,1
106244,0.1318359,0.9570312999999999,0.3037109,-3.4790039999999998,16.78467,-27.46582,77.56348,-7.102661,-14.19983,13.11667,3.6,-3.125,1
106464,-0.060546880000000004,1.191406,0.1567383,2.319336,-30.39551,-2.807617,73.98193,-3.059692,-18.9624,30.90833,7.466667,2.425,1
106744,0.2470703,0.7832030999999999,0.26220699999999997,2.563477,16.47949,32.2876,77.00867,-0.736084,-19.01184,-8.216666,-87.85833,52.54167,1
107034,0.12451169999999999,0.8896484,0.07226563,-1.403809,9.277344,0.4882813,75.88257,-2.526855,-12.42004,22.49167,-4.158333,3.9,1
107284,-0.026367190000000002,0.7729492,0.24414059999999999,-7.507324,23.55957,-25.87891,77.62939,-5.39978,-13.7439,13.575,2.283333,-1.616667,1
107554,0.04150391,1.193359,-0.2148438,13.97705,-23.13232,-25.45166,74.0863,-3.158569,-19.00085,-9.041667,-87.59167,50.80833,1
107844,-0.007324219000000001,0.8046875,0.2792969,1.403809,-1.464844,38.63525,77.60193,0.3625488,-19.79736,12.26667,2.008333,0.1333333,1
108114,0.1572266,1.182129,0.08398438,2.319336,10.13184,5.615234,75.47607,-2.9168700000000003,-11.72241,26.94167,12.78333,-5.016667,1
108424,-0.24072269999999998,0.734375,0.1806641,-11.84082,-36.19385,-30.15137,76.23962,-3.66394,-14.27673,12.98333,1.741667,-0.8,1
108650,-0.21337889999999998,1.598633,0.08105469,8.850098,-16.29639,-29.1748,74.21814,-1.774292,-23.25256,-4.958333,-90.11667,52.475,1
108904,0.17480469999999998,0.7700195,0.2617188,5.371094,1.525879,26.18408,76.38794,-0.4888916,-21.84631,14.36667,2.341667,-0.4333333,1
109144,-0.02148438,1.186523,-0.007324219000000001,6.896973,-6.835938,5.615234,76.17371,-2.636719,-16.36963,-8.375,-88.23333,51.475,1
109384,0.0078125,0.8574219,0.3007813,-5.249023,3.173828,-25.20752,75.09155,-5.932617,-18.30322,13.78333,2.683333,0.25,1
109644,-0.03759766,0.8007812999999999,0.15136719999999998,-18.49365,-16.8457,1.220703,73.98743,-2.719116,-22.17041,20.36667,2.8,-2.2,1
109874,0.1474609,1.500977,0.8349609,-3.845215,32.34863,-39.18457,73.21838,-1.329346,-24.06555,16.68333,5.758333,0.15,1
110084,0.01025391,0.7695312999999999,0.1044922,4.577637,29.84619,10.13184,75.95947,-3.059692,-17.50671,18.48333,1.75,-0.9,1
110361,0.2514648,1.076172,0.44287109999999996,-18.37158,-18.9209,-1.525879,74.729,-7.201538,-16.56738,-9.541667,-85.85833,48.14167,1
110674,-0.04443359,0.8300780999999999,0.12255859999999999,-10.92529,-31.79932,4.760742,72.68005,-2.741089,-21.40686,-4.908333,-88.975,49.31667,1
110944,-0.01904297,1.018066,0.39599609999999996,17.7002,30.51758,-27.9541,75.02563,0.9722900000000001,-23.09875,12.1,5.525,0.6833332999999999,1
111184,0.1123047,0.875,0.07714844,0.1831055,9.155273,-0.8544921999999999,75.58044,-2.406006,-18.77563,-3.258333,-89.54166,50.84167,1
111444,0.2348633,1.036621,0.4785156,-0.3662109,-31.00586,21.05713,76.30554,-6.3555909999999995,-19.1272,14.11667,5.3,-0.225,1
111694,-0.030273440000000002,0.765625,0.1137695,-12.81738,-17.02881,-1.6479489999999999,73.88855,-2.411499,-22.35718,-2.275,-90.45,53.35,1
111994,-0.2470703,0.9062500000000001,0.2895508,-3.051758,6.530762,11.77979,75.06409,0.6811522999999999,-23.97766,13.56667,3.441667,0.1,1
112304,0.1733398,1.005371,0.06640625,4.02832,12.51221,0.8544921999999999,75.06409,-2.713623,-18.28125,-6.725,-89.58334,53.71667,1
112614,-0.19433589999999998,0.7148437999999999,0.23779299999999998,-9.399414,4.02832,-29.47998,75.82214,-4.866943,-17.47375,13.05,1.616667,-0.6916667,1
112984,-0.09667969,1.014648,0.4301758,-5.92041,28.93066,-13.97705,74.00391,1.235962,-21.79688,-4.208333,-92.075,51.70833,1
113264,0.06933594,0.8203125,0.1259766,7.385254,17.82227,17.02881,74.08081,-1.6479489999999999,-18.6438,14.24167,1.8333329999999999,1.358333,1
113494,-0.1518555,0.9702147999999999,0.6484375,-12.20703,-32.34863,39.24561,76.20667,-4.855957,-17.05627,-9.716666,-88.19167,52.33333,1
113724,-0.07470703000000001,0.7924804999999999,0.1757813,-6.469727,-35.94971,-29.1748,75.24536,-2.977295,-19.47327,13.725,2.141667,-1.291667,1
113964,-0.02832031,1.149902,0.1806641,-12.87842,-28.13721,-8.239746,73.25134,-2.532349,-26.58691,29.7,15.475,-2.175,1
114184,0.230957,0.7910155999999999,0.22558589999999998,7.202148,11.65771,26.97754,76.07483,-0.7745361,-27.53723,-3.883333,-92.30833,56.175,1
114434,0.1953125,0.9990234,0.03613281,6.896973,20.56885,7.8125,75.81665,-2.070923,-23.21411,23.25833,-0.2083333,1.225,1
114710,-0.11474609999999999,0.7612304999999999,0.29394529999999996,-7.751465,-4.821777,-36.56006,75.56396,-4.921875,-25.36743,-6.333333,-90.68333,56.21667,1
114974,-0.06689453000000001,0.8066405999999999,0.105957,-13.18359,-39.0625,2.746582,73.56995,-2.433472,-33.11829,20.89167,-0.3916667,0.225,1
115204,-0.03710938,0.9111328,0.2817383,12.51221,-4.760742,29.1748,75.00916,0.6536865,-33.81592,-1.316667,-93.575,58.70833,1
115494,0.07275391,0.809082,0.1435547,-10.43701,18.55469,5.187988,74.76746,-2.543335,-28.66333,20.99167,1.858333,-0.9833333999999999,1
115754,0.3618164,0.8886719,0.3588867,10.00977,-16.41846,-19.65332,74.72351,-7.207031,-27.91077,13.35833,4.525,-1.683333,1
116014,-0.03417969,1.020996,0.06005859,-11.96289,-23.86475,3.540039,73.2074,-2.488403,-36.29333,-2.491667,-93.06667,59.30833,1
116284,-0.1933594,1.22168,0.5146484,-25.5127,23.74268,-24.04785,74.8938,1.466675,-36.44714,12.675,4.116667,0.1333333,1
116534,0.1020508,0.7929687999999999,0.08007813,9.338379,8.850098,3.723145,74.45435,-1.466675,-33.75549,-2.666667,-92.85833,58.9,1
116844,-0.0078125,0.8242187999999999,0.24951169999999998,1.525879,-5.67627,-37.29248,75.64087,-5.2624509999999995,-35.31006,12.59167,3.075,-0.6916667,1
117215,0.5151367,1.473633,0.8437500000000001,12.3291,25.39063,-43.5791,74.46533,-0.736084,-49.76807,4.891667,-95.075,65.25,1
117464,0.234375,0.7729492,0.21289059999999999,3.051758,10.37598,23.86475,76.0199,-0.9832763999999999,-48.72986,12.80833,2.15,-0.2916667,1
117724,0.184082,1.6450200000000001,0.001464844,12.02393,-7.385254,26.55029,75.83313,-3.197021,-44.82971,-0.1,-93.01667,64.48333,1
117954,-0.11279299999999999,0.7485352,0.2602539,-1.6479489999999999,-21.3623,-31.37207,75.23438,-4.938354,-48.82874,13.30833,1.791667,0.05833333,1
118194,-0.02978516,0.8540038999999999,0.1210938,-14.22119,-17.94434,4.882813,73.54797,-3.065186,-55.87646,20.94167,-2.608333,1.9916669999999999,1
118414,0.07910156,0.7753905999999999,0.2993164,3.234863,-14.83154,27.28271,76.16272,0.4614258,-57.10144,9.158334,-95.35833,68.05,1
118665,0.04638672,0.8051758,0.08300781,2.197266,4.577637,3.845215,75.72327,-2.246704,-52.59155,20.80833,0.008333334000000001,1.491667,1
118940,0.07275391,0.8857421999999999,0.284668,5.7983400000000005,-3.90625,-28.07617,76.48132,-7.102661,-54.44275,3.9,-92.51667,68.41666,1
119204,0.04052734,0.7988280999999999,0.08203125,-14.34326,-33.08105,-4.760742,75.05859,-2.949829,-60.81482,19.49167,1.433333,-1.775,1
119414,0.046875,1.746094,0.8867187999999999,-5.554199,2.807617,-35.70557,74.17419,-2.307129,-65.55542,14.79167,5.683333,-1.15,1
119644,0.020996090000000002,0.7871094,0.09130859,2.13623,26.55029,9.094238,75.06958,-2.488403,-59.5459,9.308333,-93.65833,67.21667,1
120905,0.08544922,1.201172,-0.008300781,10.55908,0.9155272999999999,5.7983400000000005,75.64087,-3.109131,-57.6123,17.01667,11.575,1.475,1
121174,-0.04833984,0.7695312999999999,0.13476559999999999,-16.41846,-38.94043,-25.93994,75.43213,-4.11438,-62.87476,14.675,-91.725,66.7,1
121444,0.4833984,1.186523,1.033203,20.56885,19.89746,-46.63086,74.03687,-1.19751,-67.40662,18.23333,-91.84167,67.53333,1
121744,0.1137695,0.7651367,0.1342773,-5.615234,28.07617,24.10889,76.00891,-1.499634,-65.2478,13.06667,1.825,0.2333333,1
121994,0.0009765625,1.812012,0.5087891,-25.02441,-8.972168,47.24121,74.89929,-4.421997,-59.88647,16.975,6.566667,-0.6166667,1
122284,0.02978516,0.7412109,0.06933594,-11.1084,-8.422852,-10.98633,73.07556,-3.2958979999999998,-60.9082,17.45833,1.608333,-2.1,1
122644,0.1606445,0.6708984,0.2885742,8.300781,3.662109,19.22607,74.31152,-0.5383300999999999,-62.90222,16.925,-93.9,66.89167,1
122864,0.19726559999999999,0.9262695,0.03857422,11.35254,36.13281,9.70459,74.24561,-1.488647,-57.337650000000004,12.55,-93.775,67.95,1
123114,0.1386719,1.184082,0.472168,-25.45166,-38.45215,37.59766,74.98718,-6.965332,-54.61853,12.96667,3.591667,2.108333,1
123364,0.03320313,0.8813477,0.06640625,-6.164551,-33.5083,-9.033203,72.44385,-3.383789,-62.08923,11.075,-95.00833,67.4,1
123614,-0.2397461,1.053711,0.27050779999999996,4.699707,28.38135,-16.41846,74.22913,1.137085,-64.61609,11.35,5.508333,1.05,1
123834,0.1152344,0.7338867,0.1459961,4.394531,33.26416,21.3623,75.36072,-1.658936,-62.21558,15.03333,1.266667,0.9583332999999999,1
124054,-0.1953125,0.9824219,0.6425780999999999,4.699707,-50.96436,35.88867,74.84436,-6.130371,-57.38159,4.583333,-93.0,67.95,1
124304,-0.09912109000000001,0.703125,0.1645508,-15.68604,-34.60693,-24.53613,74.729,-3.240967,-61.44104,13.991670000000001,1.408333,-1.4,1
124580,0.2890625,0.8154296999999999,0.5493163999999999,57.49512,39.30664,-36.25488,74.31702,0.01647949,-67.41211,13.275,-96.06667,68.64167,1
124844,0.1357422,0.6728516,0.1308594,4.333496,35.27832,26.18408,75.25085,-1.983032,-62.52869,13.8,2.866667,-0.5166666999999999,1
125074,-0.4711914,1.2470700000000001,0.6699219,-52.6123,-6.408691,49.1333,74.10278,-4.905396,-57.41455,4.575,-93.725,67.14167,1
125364,-0.15917969999999998,0.7666016,0.21777339999999998,-11.84082,-28.56445,-26.42822,74.53674,-4.235229,-60.73792,13.00833,1.8,-1.425,1
125604,0.08544922,1.9760739999999999,0.6147461,0.12207029999999999,19.83643,-34.05762,72.94922,-1.1920169999999999,-66.40686,19.725,6.566667,-0.7833333,1
125884,-0.01855469,0.6928711,0.1210938,3.662109,22.03369,9.155273,75.03113,-1.4556879999999999,-60.17212,8.9,-94.68333,68.44167,1
126164,0.2304688,1.675781,0.05712891,27.89307,-4.211426,26.06201,76.30005,-2.724609,-58.83728,24.375,6.6,-2.125,1
126414,0.1113281,0.7270508,0.1123047,-6.896973,-42.41943,-22.3999,74.21265,-3.092651,-64.09973,14.43333,1.275,-0.9833333999999999,1
126744,-0.030273440000000002,1.020996,0.503418,7.324219,47.30225,-25.81787,74.4104,0.5603026999999999,-66.73645,12.725,4.016667,1.725,1
126980,0.03466797,0.8286133,0.15478519999999998,-10.43701,29.84619,7.324219,74.729,-2.752075,-58.07373,6.775,-93.83334,67.35,1
127234,-0.30126949999999997,1.071777,0.8164062999999999,-6.408691,-32.95898,47.18018,74.74548,-6.218262,-57.13989,15.18333,5.116667,1.408333,1
127474,-0.006347656,0.871582,0.10107419999999999,-18.18848,-16.35742,4.455566,73.14148,-3.279419,-62.74292,8.066667,-94.69167,67.025,1
127714,0.2426758,1.672852,0.9238280999999999,-11.16943,37.8418,-49.62158,72.92725,-1.016235,-63.80859,15.70833,4.866667,0.44166669999999997,1
127974,0.2265625,0.7553711,0.2036133,1.037598,24.90234,24.10889,74.88831,-0.269165,-60.08972,12.61667,1.525,1.508333,1
128194,0.1640625,1.023438,0.006835938000000001,11.90186,4.211426,6.835938,74.58618,-1.153564,-54.84375,36.94167,6.1,-3.766667,1
128414,-0.1342773,0.7192383,0.246582,-7.080078,-22.64404,-27.70996,74.74548,-3.834229,-59.08447,6.525,-94.44167,67.10833,1
128654,-0.02294922,0.9521484,0.008789063,-3.4790039999999998,-11.16943,8.972168,72.48779,-2.537842,-63.5614,24.6,-0.47500000000000003,2.116667,1
128914,0.1948242,0.7363280999999999,0.29394529999999996,10.19287,-0.6103516,22.46094,73.63586,0.7470703,-61.36963,13.725,2.55,0.09166667,1
129214,0.06689453000000001,1.106445,0.022460940000000002,5.004883,4.577637,3.967285,73.58093,-1.483154,-56.10718,5.766667,-94.51667,66.69167,1
129514,-0.1557617,0.8173828,0.1923828,-15.99121,-45.59326,-31.73828,73.64136,-3.153076,-59.99084,7.908333,-95.325,66.63333,1
129774,-0.11621089999999999,1.186523,0.125,-8.422852,-26.48926,-8.422852,71.73523,-2.658691,-68.13171,35.14167,14.35833,-2.358333,1
130024,0.17382809999999999,0.7685546999999999,0.2563477,4.882813,32.95898,35.82764,74.48181,-0.7250977,-65.78613,10.625,-95.74167,67.70834,1
130324,0.12695309999999999,1.138184,-0.23291019999999998,39.18457,-8.666992,2.258301,75.67932,-2.828979,-58.73291,22.775,9.733334,-1.558333,1
130634,0.03417969,0.7050780999999999,0.168457,-6.652832,-36.86523,-30.15137,74.76196,-3.290405,-63.11096,9.191667,-94.9,68.075,1
130944,0.1342773,0.703125,0.5844727,57.49512,44.92188,-25.5127,73.82263,1.098633,-65.79163,12.7,5.825,0.5666667,1
131314,0.1098633,1.216797,0.0,11.53564,10.43701,13.97705,74.04785,-2.197266,-58.13965,6.825,-94.45,66.31667,1
131564,0.08642578000000001,0.8515625,0.3125,0.8544921999999999,15.01465,-27.64893,73.86108,-6.553345,-60.17761,13.025,3.983333,-1.608333,1
131824,-0.08691406,1.277344,0.07421875,-0.3662109,-30.0293,-17.08984,71.58142,-3.674927,-64.74243,9.391666,-95.70834,65.25,1
132204,0.23632809999999999,0.7255859,0.2084961,-3.723145,29.96826,25.32959,74.9762,-0.5438232,-61.35864,13.991670000000001,1.225,-0.1,1
132414,0.215332,0.9687500000000001,0.060546880000000004,8.850098,6.896973,5.7983400000000005,74.06982,-1.5325929999999999,-55.23926,32.825,6.141667,0.675,1
132634,-0.1923828,0.7114258,0.2602539,-8.300781,-9.70459,-26.18408,75.78369,-3.554077,-56.80481,5.833333,-94.19167,65.875,1
132874,-0.04931641,0.8852538999999999,0.08789063,-2.990723,-33.5083,-1.525879,72.82837,-2.191772,-63.3252,20.69167,-2.916667,3.408333,1
133124,0.07763672,0.6704102,0.22119139999999998,7.080078,13.24463,34.30176,76.10229,-0.401001,-63.31421,10.91667,-95.28333,67.45,1
133374,0.11669919999999999,0.8374022999999999,0.08935547,-3.662109,3.78418,2.380371,74.99268000000001,-2.1698,-57.10144,18.38333,0.24166669999999998,0.525,1
133640,0.08642578000000001,0.9321288999999999,0.27099609999999996,8.422852,12.26807,-29.90723,74.91028,-5.993042,-57.00806,4.891667,-93.73333,65.53333,1
133944,-0.030273440000000002,1.209961,0.10058589999999999,-4.516602,-12.51221,-7.263184,71.97693,-2.6696779999999998,-65.88501,16.85833,11.80833,2.208333,1
134254,0.20996089999999998,0.7905272999999999,0.16650389999999998,-0.24414059999999999,44.37256,33.26416,74.43787,-0.6097412,-61.20483,9.116667,-94.96667,65.78333,1
134544,-0.005371094000000001,1.9350589999999999,0.5698242,-29.54102,-23.37646,60.60791,75.41016,-3.35083,-55.77209,17.68333,6.45,-2.141667,1
134874,0.08642578000000001,0.6958008,0.08398438,-6.04248,-42.48047,-19.77539,73.02612,-2.493896,-62.655030000000004,16.45,0.9416667,0.6416666999999999,1
135154,-0.2397461,1.390137,0.5615234,-27.16064,20.62988,-13.67188,75.11353,1.384277,-67.03857,14.85,-95.075,67.1,1
135440,0.11425779999999999,0.8710937999999999,0.1157227,-2.075195,13.42773,2.075195,74.42688,-2.70813,-57.54639,7.566667,-93.20834,65.56667,1
135734,-0.005859375,0.9921875,0.5991211,-11.77979,-17.33398,35.03418,74.59167,-6.888428,-57.22778,14.375,4.216667,0.25,1
136024,-0.03564453,0.8061522999999999,0.1479492,-12.75635,-21.42334,3.723145,72.09229,-2.680664,-62.72644,20.51667,1.7083329999999999,-0.5583332999999999,1
136234,0.6049804999999999,0.8671875,0.8081054999999999,21.78955,24.90234,-54.07715,73.07007,0.4833984,-65.26978,13.45,4.191667,1.9916669999999999,1
136444,0.1845703,0.7143554999999999,0.17480469999999998,-5.554199,33.38623,21.60645,74.23462,-1.977539,-61.70471,14.11667,1.25,0.7000000000000001,1
137634,0.2182617,0.9472655999999999,0.06298828000000001,4.211426,13.73291,4.089355,73.54797,-2.312622,-60.5072,31.825,3.791667,3.283333,1
137844,0.2719727,1.390137,0.3305664,-11.84082,-14.83154,1.037598,74.87183,-6.82251,-61.04004,11.46667,4.4,-1.308333,1
138054,0.09472656,0.7197266,0.08544922,-0.7324219,-26.55029,-14.89258,74.44885,-2.37854,-64.97314,14.50833,1.5,-1.191667,1
138294,-0.1923828,1.19873,0.3691406,-7.8125,21.24023,5.859375,74.8114,1.8731689999999999,-66.9397,11.48333,5.308333,-0.025,1
138560,0.20605469999999998,0.8652344,0.1230469,0.1831055,8.483887,1.525879,73.47107,-1.5325929999999999,-60.70496,10.79167,-93.29166,65.875,1
138824,0.2612305,1.2885739999999999,0.5581054999999999,6.164551,-23.4375,23.37646,76.40991,-6.16333,-59.27673,13.16667,4.041667,-0.375,1
139084,-0.02587891,0.8544921999999999,0.05029297,-17.08984,-22.03369,0.6713867,73.75671,-2.208252,-66.30798,13.475,-93.29166,66.86667,1
139384,0.07568359,0.590332,0.2822266,1.220703,0.4882813,37.59766,75.18494,0.5438232,-66.96167,15.31667,-93.23333,67.65833,1
139654,0.1015625,0.8476562999999999,0.1157227,-8.483887,21.3623,4.02832,73.53149,-1.483154,-59.08447,18.325,-0.17500000000000002,1.4583329999999999,1
139895,0.19824219999999998,0.9609375,0.2993164,17.7002,-12.39014,-38.69629,72.35596,-4.702148,-58.87024,10.25833,-92.65,64.78333,1
140184,0.06933594,1.176758,0.1474609,-19.40918,-10.13184,-8.056641,70.3949,-1.4556879999999999,-72.76245,20.61667,18.58333,0.7333333,1
140514,0.1362305,0.6420897999999999,0.1850586,7.507324,17.39502,20.32471,75.07507,-0.9393311,-75.36621,13.03333,2.275,-0.9583332999999999,1
140804,-0.03710938,1.521973,0.6870117,-18.00537,-14.34326,65.06348,74.93225,-4.136353,-73.40515,17.05,-92.725,68.40833,1
141114,0.04785156,0.7255859,0.1000977,-15.99121,-53.10059,-19.65332,73.33374,-2.043457,-82.63367,17.325,1.116667,-0.7666666999999999,1
141354,0.1621094,2.1708979999999998,0.6591796999999999,-10.92529,37.59766,-39.12354,72.13623,-1.741333,-86.90186,22.19167,6.991667,-3.983333,1
141574,0.1381836,0.7299804999999999,0.1054688,-2.807617,9.277344,5.67627,73.88855,-2.889404,-84.66064,25.05833,-93.83334,67.49167,1
141804,0.0625,1.4394529999999999,-0.08496094,20.50781,-2.502441,12.57324,73.65234,-3.273926,-83.13354,21.51667,8.758333,-3.075,1
142074,-0.06640625,0.7529296999999999,0.2905273,-2.197266,-6.652832,-33.20313,72.97119,-5.515137,-85.30884,11.68333,2.983333,-1.383333,1
142284,0.01757813,0.809082,0.1455078,-15.93018,-34.05762,4.394531,70.27405,-2.944336,-93.0542,20.66667,-2.616667,2.216667,1
142514,0.1699219,0.7846679999999999,0.2880859,5.67627,-17.94434,17.45605,73.6084,-1.164551,-97.52563,32.975,-93.74167,66.11667,1
142754,0.07470703000000001,0.8271484,0.1381836,-14.83154,17.82227,5.432129,72.68555,-3.493652,-94.58679,18.80833,2.891667,1.108333,1
142994,0.13134769999999998,0.9663086,0.34082029999999996,17.08984,-2.624512,-27.34375,73.28979,-6.102905,-94.38354,28.975,-93.96667,66.55,1
143264,-0.006347656,0.7568359,0.09130859,-13.00049,-38.94043,-7.93457,73.05908,-2.554321,-99.95911,20.76667,2.2,0.725,1
143524,-0.27050779999999996,1.11377,0.4008789,-5.004883,4.089355,9.094238,73.61389,0.2526855,-105.4028,38.31667,-92.88333,64.93333,1
143814,0.17431639999999998,0.9741211,-0.01367188,19.89746,13.61084,0.24414059999999999,73.67432,-2.785034,-98.84949,29.26667,2.541667,3.558333,1
144124,-0.1772461,0.7416992,0.2739258,-9.399414,-24.04785,-25.75684,75.57495,-4.284668,-100.08,34.675,-93.3,66.31667,1
144414,-0.03466797,1.387207,-0.1181641,24.6582,-22.52197,-11.59668,73.25684,-2.609253,-113.1921,21.18333,10.80833,-1.066667,1
144734,-0.001464844,0.7050780999999999,0.1342773,1.220703,30.76172,17.57813,75.68481,-3.251953,-110.7037,39.09167,-92.88333,65.16666,1
145044,0.02783203,1.12793,0.6054687999999999,-14.16016,-21.30127,9.94873,73.74023,-7.404785,-107.5781,14.13333,4.5,1.4583329999999999,1
145374,-0.0390625,0.8295897999999999,0.09375000000000001,-19.65332,-32.2876,1.8310549999999999,72.92725,-3.438721,-113.4558,19.91667,-2.233333,1.108333,1
145684,0.0234375,0.8232421999999999,0.2602539,22.15576,-10.13184,36.01074,74.78394,-2.224731,-116.7023,11.98333,2.7,-0.17500000000000002,1
145924,0.1523438,1.161621,0.07421875,6.469727,-1.953125,-0.4882813,74.83887,-3.625488,-112.0001,40.20833,-92.83334,66.525,1
146154,0.12060549999999999,1.07666,0.26220699999999997,16.60156,1.464844,-30.39551,75.12451,-6.157837,-112.8406,12.2,3.241667,-1.875,1
146404,0.001953125,0.7216796999999999,0.05029297,-5.615234,-46.69189,-12.3291,73.80066,-1.686401,-120.4266,21.25833,2.016667,-0.75,1
146604,-0.1572266,1.032227,0.2875977,12.39014,-13.30566,12.93945,74.8938,-0.40649409999999997,-126.991,49.18333,-90.98333,61.45,1
146854,0.1420898,0.7055663999999999,0.04052734,0.9155272999999999,27.40479,1.281738,75.23987,-3.048706,-122.8931,20.20833,0.9166667,-2.333333,1
147140,0.2519531,1.013672,0.4936523,11.53564,-18.73779,-21.24023,72.02637,-7.1521,-122.157,44.25834,-93.16666,61.575,1
147404,-0.03515625,0.7612304999999999,0.1035156,-15.44189,-33.38623,-7.69043,72.46582,-3.147583,-128.8696,16.29167,2.308333,1.225,1
147620,0.06835938,1.039551,0.421875,-21.11816,-22.15576,-5.737305,73.19092,-0.6646729,-134.566,52.6,-89.96667,57.50834,1
147934,0.1533203,0.7534179999999999,0.09863281,-0.8544921999999999,21.3623,5.67627,74.24561,-3.543091,-133.5938,17.375,0.08333334,1.775,1
148174,0.02392578,1.242676,0.38867189999999996,-16.8457,5.7983400000000005,-11.77979,73.37769,-6.893921,-132.4182,11.825,5.066667,-0.05,1
148444,-0.07080078000000001,0.8139647999999999,0.11279299999999999,1.281738,-37.17041,2.258301,70.80688,-2.993774,-138.5211,52.775,-90.075,53.7,1
148704,-0.02001953,1.598145,0.6542969,-29.47998,-7.568359,-0.24414059999999999,73.39966,0.6097412,-140.7239,12.04167,4.766667,2.925,1
148964,0.1342773,1.003906,-0.005859375,8.178711,3.2958979999999998,-5.126953,74.73999,-1.071167,-137.8345,54.08333,-88.575,57.475,1
149274,-0.0004882813,0.7636719,0.2426758,2.746582,-8.605957,-17.63916,75.14099,-4.312134,-139.7955,12.00833,2.958333,-0.6583333,1
149604,0.11425779999999999,1.188477,-0.09814453000000001,3.78418,-5.310059,-5.7983400000000005,71.23535,-3.339844,-147.1619,15.00833,7.525,3.708333,1
149914,0.06933594,0.6318359,0.1606445,10.49805,3.112793,16.90674,73.91602,-3.03772,-146.4807,13.7,2.533333,-0.9416667,1
150140,-0.1289063,0.7998046999999999,0.7519530999999999,-17.8833,-21.97266,27.64893,73.54797,-7.278442,-144.1351,51.29167,-90.45,50.71667,1
150384,-0.06982422,0.6977538999999999,0.1464844,-1.403809,-40.1001,-22.3999,74.50928,-4.471436,-146.9037,13.8,1.491667,-1.558333,1
150634,0.1337891,1.225098,0.09521484000000001,-10.0708,3.967285,-10.43701,72.1582,-4.449463,-153.7701,12.43333,14.11667,2.766667,1
150844,0.1831055,0.5908203,0.19824219999999998,7.8125,31.12793,24.53613,75.02014,-2.741089,-151.2982,55.75,-87.21667,47.85833,1
151084,0.07617188,1.141602,0.046875,0.793457,4.02832,10.31494,73.52051,-3.240967,-144.8547,14.51667,13.10833,-0.6333333,1
151354,0.01220703,1.01123,0.3164063,9.70459,17.27295,-21.42334,73.74573,-6.635742,-144.3658,10.96667,3.066667,-0.2833333,1
151584,-0.09130859,1.217285,0.09716797,1.89209,-46.02051,-8.789063,70.76294,-3.7683109999999997,-154.0558,21.60833,19.125,0.8166667,1
151844,-0.01318359,1.098145,0.2890625,12.39014,-4.150391,26.42822,73.34473,-1.279907,-154.3909,11.45,4.416667,0.2916667,1
152074,0.1020508,0.9941405999999999,0.1025391,-9.58252,17.08984,-2.929688,71.54846,-3.312378,-146.7444,56.94167,-87.89167,46.55,1
152334,0.03076172,1.164551,0.40625000000000006,5.737305,20.08057,-18.43262,71.57043,-6.734619,-145.2777,13.25,4.025,-0.2916667,1
152584,-0.03173828,1.190918,0.1645508,4.516602,-24.23096,-11.77979,70.31799,-2.938843,-150.4633,60.94167,-87.16666,45.24166,1
152874,0.09716797,0.6010742,0.190918,7.69043,20.75195,27.22168,73.98743,-1.829224,-148.9526,11.53333,2.075,-0.225,1
154164,0.137207,1.067383,0.02783203,13.67188,13.3667,-0.3662109,73.75122,-1.999512,-145.9204,36.80833,11.575,-6.825,1
154424,-0.10058589999999999,0.6806641,0.22070309999999999,0.5493163999999999,-20.93506,-27.83203,74.94873,-3.834229,-150.1556,11.025,1.45,-2.058333,1
154704,-0.2817383,1.719238,0.109375,12.39014,-15.07568,-20.1416,72.04834,-2.598267,-157.4011,23.13333,9.825,-3.983333,1
155034,-0.004882813000000001,0.7041016,0.08544922,0.5493163999999999,38.57422,18.12744,72.81189,-2.521362,-151.2598,14.15833,-0.1333333,0.2333333,1
155344,0.1020508,1.265625,0.4921875,-11.41357,-1.159668,-21.66748,70.85632,-6.333618,-147.832,11.46667,4.241667,-0.1,1
155564,0.01904297,0.5751953,0.128418,-5.981445,-23.4375,-16.78467,71.61987,-1.933594,-151.1774,15.866670000000001,1.15,-1.908333,1
155794,-0.2661133,1.399414,0.7294921999999999,-13.97705,5.615234,14.03809,71.75171,1.246948,-153.5944,56.60833,-84.79166,47.65,1
156034,0.06005859,0.6245117,0.1044922,12.3291,29.23584,13.06152,72.66907,-1.444702,-151.2378,15.60833,0.375,0.3333333,1
156264,0.15820309999999999,1.493652,-0.1079102,32.10449,0.7324219,14.52637,73.2019,-1.422729,-147.8485,22.60833,10.3,-2.758333,1
156484,0.007324219000000001,0.6401367,0.1171875,-8.300781,-33.5083,-20.01953,73.28979,-1.884155,-151.6827,55.375,-87.0,49.55833,1
156734,-0.04150391,1.416504,0.046875,23.19336,-26.06201,-9.70459,71.7572,-2.301636,-156.5332,28.38333,11.83333,-2.05,1
157010,0.052734380000000004,0.6884766,0.1157227,2.380371,32.04346,13.12256,73.66333,-1.686401,-150.8313,55.46667,-87.15,51.33333,1
157274,0.1621094,1.029785,-0.1635742,23.55957,-5.249023,1.037598,73.63586,-2.362061,-147.8979,23.7,8.933333,-2.05,1
157484,0.06738281,0.7875977,0.22167969999999998,-4.150391,11.1084,-23.55957,74.54773,-4.279175,-150.0952,11.575,2.358333,-0.8833333,1
157714,0.1533203,1.157227,-0.24462889999999998,15.13672,-7.568359,-6.286621,70.81238,-2.070923,-156.5607,57.075,-86.21667,46.73333,1
157984,0.10888669999999999,0.671875,0.2729492,16.47949,12.57324,27.22168,72.65259,-0.2801514,-154.9237,10.75833,1.816667,1.4,1
158224,-0.04052734,1.016602,-0.206543,36.25488,-24.35303,-0.9765625,73.75671,-2.433472,-146.4917,53.26667,-88.725,54.23333,1
158514,-0.001464844,0.6455078,0.17871089999999998,-14.77051,-34.17969,-25.63477,72.72949,-3.098145,-151.6443,13.76667,0.875,-0.8666667,1
158834,0.31787109999999996,0.9355469,0.5859375,29.66309,49.92676,-40.58838,72.01538,-0.04394531,-158.269,57.85833,-85.45,47.13334,1
159134,0.1044922,0.7900391,0.10058589999999999,-0.42724609999999996,27.09961,6.774902,71.77368,-3.054199,-149.2328,53.86666,-88.21667,51.56667,1
159410,0.15087889999999998,0.9150391,0.3549805,7.202148,22.76611,-12.45117,72.91077,-6.174316,-146.5851,50.96667,-89.53333,53.35,1
159754,-0.01904297,1.207031,0.01367188,11.84082,-37.04834,-17.21191,70.2356,-3.153076,-150.9906,13.775,13.08333,3.1,1
160024,-0.011230470000000001,0.9042969,0.3662109,-1.7700200000000001,-2.075195,13.85498,71.38367,-0.13732909999999998,-148.8098,10.98333,3.35,-0.15833329999999998,1
160234,0.09765625,1.181641,0.0390625,7.263184,-1.525879,1.7700200000000001,72.26807,-1.483154,-143.8879,52.85,-87.95,54.94167,1
160494,0.06835938,1.114746,0.3608398,5.67627,11.65771,-18.55469,72.03186,-5.289917,-146.0852,10.75,3.9,-1.108333,1
160714,-0.07958984,1.13623,0.1171875,-9.82666,-18.18848,-7.751465,69.97742,-2.48291,-152.3309,54.30833,-87.20834,48.49166,1
160954,-0.2236328,1.032227,0.3295898,17.76123,10.19287,21.3623,71.98792,0.5548096,-151.2543,10.54167,3.333333,0.6583333,1
161240,0.13134769999999998,1.052246,0.05126953,9.765625,4.760742,3.356934,72.01538,-1.94458,-142.7563,52.3,-88.23333,54.64167,1
161504,0.1870117,1.185059,0.45751949999999997,-17.63916,-11.53564,-7.568359,72.05383,-6.767578,-145.0635,12.08333,3.058333,0.25,1
161714,0.009765625,0.7216796999999999,0.08203125,-19.53125,-38.39111,-17.94434,72.8064,-2.570801,-149.881,15.69167,1.0,-1.008333,1
161944,-0.1054688,1.651855,0.46679689999999996,-14.09912,5.065918,5.92041,72.77893,0.9887695,-152.9022,56.73333,-85.45834,49.09167,1
162214,0.06445313,0.7202147999999999,0.1337891,-7.385254,34.79004,10.37598,73.8446,-2.087402,-148.2275,16.15833,0.125,1.116667,1
162454,0.1025391,1.224121,0.4916992,-10.86426,-8.544922,-7.141113,72.4823,-6.069946,-147.2443,52.125,-88.61667,51.26667,1
162744,-0.02685547,0.9331054999999999,0.01806641,-9.399414,-26.7334,-5.737305,71.58142,-1.917114,-155.6323,27.89167,-1.75,2.925,1
163094,0.07617188,0.65625,0.2714844,16.78467,24.41406,17.15088,72.99316,-0.7141113,-153.1384,10.45,2.408333,-0.5083333,1
163374,0.19042969999999998,1.799316,0.004882813000000001,21.60645,-16.96777,21.24023,72.91626,-2.790527,-145.3436,20.63333,8.933333,-0.8250000000000001,1
163704,0.006347656,0.6630859,0.1386719,-17.33398,-40.52734,-18.98193,71.92749,-2.433472,-150.6061,15.741670000000001,0.7000000000000001,-0.7416667,1
164014,-0.02294922,1.3666989999999999,0.5507813,-24.78027,4.272461,8.239746,71.7572,1.142578,-156.1542,11.89167,4.366667,1.9000000000000001,1
164270,0.08056641,0.9829102,0.05322266,4.699707,10.31494,0.6713867,73.05359,-2.070923,-147.5684,54.91667,-87.26667,52.49166,1
164514,0.17871089999999998,1.375488,0.6401367,-29.1748,-3.356934,14.09912,72.36694,-6.921387,-146.5411,13.90833,3.55,0.31666669999999997,1
164734,0.01660156,0.6127929999999999,0.1494141,-10.68115,-48.46191,-27.771,73.03162,-2.785034,-151.073,13.81667,1.266667,-2.141667,1
164944,0.05566406,1.149414,0.5981445,6.713867,7.263184,-16.35742,72.35596,0.3625488,-157.8241,58.66667,-84.475,45.54167,1
165174,0.03417969,0.6254883,0.10644529999999999,11.41357,52.67334,24.4751,74.29504,-2.730103,-152.0892,14.7,1.65,-0.5583332999999999,1
165454,0.13525389999999998,1.013672,-0.09326172,22.2168,-18.31055,7.080078,73.56995,-2.894897,-147.6947,21.95,13.85,-6.075,1
165680,-0.08886719,0.6381836,0.1616211,-6.774902,-54.93164,-26.9165,73.16345,-3.488159,-149.0295,55.73333,-86.925,48.825,1
165944,0.1542969,1.177246,0.03320313,-6.286621,-4.333496,-6.835938,70.68604,-3.669434,-157.5604,14.46667,7.591667,6.666667,1
166154,0.08105469,0.8740234,0.3198242,2.990723,6.652832,25.63477,73.19641,-0.8294678,-156.0498,11.2,2.458333,1.158333,1
166384,0.1337891,1.104492,-0.03466797,13.3667,-0.06103516,0.0,72.74048,-3.004761,-144.6625,8.375,14.85833,-0.7166667,1
166684,-0.07470703000000001,0.6743163999999999,0.190918,0.3051758,-37.35352,-29.78516,72.76245,-3.751831,-146.5082,54.88334,-87.83334,49.74166,1
166974,-0.04345703,0.8359375,0.6303711,55.7251,34.5459,-42.84668,73.15247,-0.8514404,-154.4458,58.03333,-86.41666,48.0,1
167334,0.1098633,0.8168945,0.14257809999999999,1.953125,54.80957,9.033203,74.60815,-3.120117,-144.5471,19.425,0.3833333,2.591667,1
167584,-0.02734375,1.218262,0.2724609,-16.35742,26.61133,-27.34375,74.94873,-7.168579,-137.0599,49.95,-92.11667,57.01667,1
167870,0.0625,1.037598,0.04833984,5.67627,6.896973,31.92139,72.12524,-7.333374,-135.1923,47.74166,-93.14167,56.95833,1
168170,0.1772461,0.8710937999999999,0.2719727,9.82666,149.5972,59.32617,75.01465,-6.278687,-114.906,37.50834,-93.75,67.83334,1
168514,-0.006835938000000001,1.042969,0.02929688,16.54053,36.01074,3.845215,75.04211,-7.580566,-72.21313,12.54167,-91.13333,73.58334,1
168734,-0.03613281,0.9765625,0.3925781,-13.24463,109.5581,-1.098633,74.43237,-7.58606,-56.74988,15.03333,3.316667,-0.2583333,1
168964,-0.1171875,0.8637695,0.1098633,-7.568359,46.99707,7.873535,71.57593,-3.383789,-40.19348,17.70833,1.533333,0.925,1
169174,0.10693359999999999,0.8466796999999999,0.4775391,-2.929688,39.24561,22.03369,73.8446,-1.126099,-27.44385,-6.308333,-89.38333,57.61666,1
169414,0.2475586,0.8789062999999999,0.23779299999999998,15.99121,76.35498,38.33008,75.81116,-6.322632,-12.99133,15.48333,2.616667,2.875,1
170664,0.128418,0.8574219,0.1914063,-3.90625,11.04736,-1.403809,80.33203,-5.427246,21.59363,20.06667,-0.2083333,1.008333,1
170894,0.03515625,0.7534179999999999,0.6772461,-29.1748,-12.08496,13.5498,81.45813,-8.635254,22.53845,15.81667,4.958333,0.8166667,1
171110,-0.1137695,0.7788086,0.1435547,-30.39551,-26.55029,-6.530762,79.93652,-4.004517,23.64258,-11.075,-79.16666,28.51667,1
171374,0.152832,1.421387,0.8408203,25.93994,48.27881,-49.43848,80.12878,-1.911621,21.85181,15.13333,6.333333,0.9500000000000001,1
171604,0.07910156,0.8286133,0.09326172,-9.399414,28.32031,3.601074,81.66687,-5.949097,26.79016,-10.1,-78.35,26.80833,1
171904,-0.2724609,1.729004,0.5083008,-59.26514,6.774902,55.23682,81.51855,-7.932129,30.02014,17.44167,7.433333,-0.9083334,1
172134,-0.1171875,0.7597655999999999,0.1210938,-12.45117,-18.31055,-9.82666,80.6012,-4.625244,30.94849,16.375,1.291667,0.3083333,1
172414,-0.13134769999999998,1.248047,0.46728519999999996,-19.9585,-9.094238,-0.8544921999999999,81.76575,-1.175537,27.08679,-7.191667,-80.55833,26.89167,1
172684,0.13134769999999998,0.7158203,0.09277344,5.554199,21.97266,7.873535,83.12805,-5.245972,28.23486,14.84167,1.3,1.425,1
172974,0.2431641,1.228027,0.5273438,-10.86426,-33.69141,5.065918,83.39722,-8.712158,30.79468,11.89167,4.483333,0.9833333999999999,1
173244,-0.04248047,0.8852538999999999,0.1181641,-14.95361,-29.84619,4.638672,81.65588,-4.5593259999999995,25.40039,22.40833,-4.858333,3.758333,1
173614,0.1557617,0.7431641,0.11865229999999999,-0.5493163999999999,30.88379,20.87402,83.67188,-4.54834,25.54321,-8.383333,-79.43333,28.975,1
173864,0.1367188,1.23877,-0.05810547,5.7983400000000005,0.8544921999999999,2.258301,81.7218,-5.630493,30.40466,12.60833,11.81667,-2.908333,1
174124,-0.006347656,0.7578125,0.2602539,15.01465,9.887695,-31.25,81.91406,-6.844482,29.22363,11.85,2.8083329999999997,-0.6666667,1
174334,0.1210938,1.27002,0.1157227,-6.408691,7.141113,-6.896973,79.84314,-4.224243,21.868290000000002,-8.841666,-79.43333,29.975,1
174574,-0.08300781,0.9760742,0.2578125,15.625,-3.2958979999999998,26.00098,82.86987,-1.3348389999999999,24.16992,10.8,3.4,0.1333333,1
174814,0.28613279999999996,1.428223,0.1103516,5.67627,9.155273,12.26807,82.55676,-5.72937,29.0094,-8.191667,-79.0,27.95,1
175064,0.29345699999999997,0.9804687999999999,0.43603519999999996,0.24414059999999999,0.8544921999999999,-21.05713,81.69983,-9.118652,27.69653,11.65833,4.475,0.05833333,1
175334,0.03613281,0.6875,0.1650391,-15.38086,-22.03369,-8.422852,81.83167,-4.597778,25.85632,18.80833,1.55,0.725,1
175550,-0.17822269999999998,1.17334,0.3710938,-14.70947,-4.272461,14.16016,82.27661,-1.417236,26.405640000000002,-6.916667,-80.89167,28.63333,1
175834,0.0859375,1.048828,0.01611328,7.568359,11.65771,2.075195,82.49084,-6.080933,30.41565,-7.933333,-78.80833,26.68333,1
176134,0.25439449999999997,1.225098,0.4726563,-17.02881,-16.11328,-7.507324,81.56799,-9.272461,29.67407,12.45833,3.775,1.7,1
176374,-0.05126953,0.9409179999999999,0.1455078,-17.82227,-31.49414,0.3051758,79.65637,-4.196777,25.09277,24.30833,-2.2,3.958333,1
176644,0.13134769999999998,0.6567383,0.2919922,18.43262,-5.249023,20.26367,82.69958,-2.609253,24.92798,-7.333333,-80.3,28.725,1
176904,0.1040039,0.8847655999999999,0.1445313,-8.666992,15.56396,6.347656,81.39771,-5.317383,29.16321,20.25833,-4.875,4.1,1
177184,-0.01171875,0.7412109,0.2773438,20.62988,23.68164,-30.88379,82.37,-7.564087,29.76196,12.20833,2.316667,-0.9500000000000001,1
177474,0.2011719,1.2783200000000001,-0.09033203000000001,3.845215,13.61084,-14.09912,79.953,-4.059448,24.92798,16.4,7.833333,4.541667,1
177794,0.1420898,0.7001953,0.16259769999999998,4.02832,16.60156,21.42334,82.91931,-4.619751,28.13599,13.85833,2.858333,-1.558333,1
178114,0.01660156,0.515625,0.7119141,-21.66748,-27.52686,15.68604,81.34277,-8.772583,31.3385,12.94167,4.9,1.425,1
178344,-0.1157227,0.7138671999999999,0.12451169999999999,-5.126953,-25.63477,-20.08057,82.01843,-4.910889,31.70105,11.65,2.608333,-2.45,1
178564,-0.15820309999999999,0.7290038999999999,0.5078125,29.11377,23.68164,-19.22607,81.59546,-0.9503174,27.29553,-6.208333,-80.95,26.41667,1
178804,0.1171875,0.6054687999999999,0.1923828,8.239746,0.5493163999999999,24.96338,82.79297,-4.196777,26.75171,13.66667,3.308333,-1.966667,1
179044,-0.17041019999999998,0.7519530999999999,0.6635742,-53.77197,-3.4790039999999998,30.70068,81.50757,-9.041748,32.09656,-9.391666,-76.69167,24.6,1
179274,-0.16259769999999998,0.6577147999999999,0.1987305,-9.765625,-27.58789,-24.90234,82.59521,-5.625,31.37695,14.01667,2.791667,-3.191667,1
179554,0.1323242,1.2104489999999999,0.23291019999999998,1.7700200000000001,2.502441,-3.845215,79.06311,-4.509888,25.93872,15.075,11.55,0.24166669999999998,1
179774,-0.10644529999999999,0.9619141,0.34130859999999996,13.85498,-17.45605,15.44189,80.42542,-2.301636,28.67981,10.4,4.55,1.233333,1
179994,0.11425779999999999,1.333496,0.08007813,18.43262,9.094238,5.432129,81.96899,-5.29541,30.54749,23.15,13.125,-3.741667,1
180254,0.1831055,0.9921875,0.3916016,4.333496,5.554199,-25.32959,82.23816,-8.410034,30.07507,11.81667,3.975,-0.075,1
180474,-0.09130859,1.273438,0.22900389999999998,2.075195,-16.47949,-2.746582,80.6781,-4.438477,24.78516,25.95,13.94167,1.775,1
180784,0.22851559999999999,0.6362304999999999,0.2832031,3.173828,-11.77979,23.74268,82.67212,-3.526611,23.10974,-8.966666,-80.14167,29.71667,1
181074,0.1606445,1.977539,0.5576171999999999,-20.81299,2.01416,48.64502,82.29309,-7.300415,28.67432,18.05,7.116667,-0.7166667,1
181414,-0.005859375,0.7231445,0.11425779999999999,-17.08984,-31.92139,-9.58252,80.93628,-3.938599,25.6366,18.21667,2.225,1.15,1
181684,-0.10644529999999999,0.9960937999999999,0.4082031,-7.080078,-8.544922,11.96289,81.36475,-0.7305908,24.36768,-6.741667,-81.41666,28.05833,1
181964,0.2026367,0.6943359,0.13476559999999999,0.793457,20.62988,4.272461,83.01819,-4.883423,24.96094,20.675,1.541667,0.8583333999999999,1
182204,0.2202148,1.083496,0.4223633,8.544922,1.89209,-18.85986,81.59546,-9.28894,27.97119,-9.775,-78.1,26.11667,1
182544,-0.07226563,1.107422,0.15917969999999998,-2.01416,-30.63965,0.6713867,79.50806,-5.053711,24.11499,34.39167,13.65,0.6083333,1
182794,0.1040039,0.6186522999999999,0.2558594,14.09912,7.751465,29.78516,82.62817,-4.240723,25.98816,-8.4,-81.675,26.44167,1
183024,0.14306639999999998,1.058105,0.03466797,23.19336,8.789063,4.333496,81.04614,-6.932373,31.75049,34.09167,6.225,1.975,1
183274,-0.1210938,0.6723633,0.2597656,4.150391,9.765625,-23.01025,82.43591,-7.1521,32.01965,-8.716666,-81.375,24.25,1
183504,-0.07421875,0.9243163999999999,0.1123047,7.080078,-24.71924,1.220703,79.61243,-5.449219,28.21289,36.03333,8.025,2.308333,1
183784,-0.23632809999999999,1.246094,0.4296875,-12.63428,-8.239746,2.075195,81.52954,-1.658936,29.22913,11.96667,5.041667,1.875,1
183994,0.09082031,0.6757812999999999,0.1201172,1.403809,28.62549,10.55908,82.30957,-4.960327,30.66284,15.125,1.675,0.4333333,1
184224,0.109375,1.352051,0.5527344,-28.80859,-11.71875,2.441406,80.65613,-8.761597,33.11829,11.78333,4.658333,0.7583333,1
184484,-0.017089840000000002,0.6923828,0.09765625,-6.225586,-30.33447,-16.72363,81.71082,-4.334106,30.22888,14.26667,2.833333,-0.9333332999999999,1
184714,-0.21289059999999999,1.494141,0.4702148,-19.04297,1.037598,7.8125,81.28784,-0.7196045,28.08105,11.73333,5.383333,1.95,1
185014,0.07080078000000001,0.875,0.144043,-2.746582,24.96338,8.178711,80.16174,-4.729614,33.04138,-7.216667,-82.95,27.06667,1
185304,-0.10498049999999999,0.6635742,0.24560549999999998,12.69531,9.887695,-26.9165,80.79895,-5.993042,36.29333,-7.0,-81.70834,25.9,1
185574,-0.02929688,0.840332,0.15478519999999998,0.8544921999999999,-30.76172,1.159668,78.47534,-4.086914,30.63538,19.975,-3.85,3.341667,1
185824,-0.006347656,0.7055663999999999,0.2792969,17.08984,-2.197266,16.6626,82.93579,-3.136597,31.63513,-7.133333,-82.575,30.23333,1
187114,0.04394531,1.337402,0.08691406,8.911133,9.765625,13.00049,80.40344,-5.306396,41.40198,-6.333333,-78.03333,24.88333,1
187430,-0.1572266,0.7021484,0.1953125,-11.53564,-18.31055,-24.16992,82.02942,-5.625,40.13855,-6.983333,-77.44167,25.63333,1
187724,0.1572266,1.083984,0.9233397999999999,31.55518,48.76709,-45.77637,80.00244,-2.576294,35.9967,15.98333,5.366667,2.625,1
188094,0.10644529999999999,0.7475586,0.1323242,-1.098633,45.77637,12.93945,82.15027,-5.960083,40.41321,23.95,0.9666665999999999,2.3,1
188294,-0.1557617,1.478516,0.7885742,-24.41406,7.69043,61.4624,83.54004,-8.904419,43.93433,18.78333,6.1,1.691667,1
188494,-0.1030273,0.6855469,0.2045898,-2.258301,-7.69043,-24.96338,82.4469,-7.547607,45.02197,11.61667,2.375,-2.416667,1
188694,-0.06787109,1.138672,0.1191406,4.02832,-19.28711,-2.746582,80.13977,-6.262207,39.04541,29.88333,13.79167,-0.025,1
188914,0.1567383,0.6948242,0.2387695,1.708984,29.72412,30.09033,83.0127,-4.356079,43.5498,-5.333333,-78.025,21.46667,1
189154,0.02685547,0.9770508,0.02148438,21.91162,13.79395,2.807617,80.07935,-6.487427,52.52014,30.95833,7.591667,-0.325,1
189434,0.17041019999999998,1.187012,0.4130859,1.281738,-11.1084,-13.61084,80.92529,-10.2832,50.49866,11.25,4.258333,-1.016667,1
189644,0.02832031,0.7065429999999999,0.1479492,-14.28223,-30.70068,-13.61084,80.27161,-5.712891,48.2135,14.95,1.3,0.24166669999999998,1
189854,0.02294922,1.45752,0.5185546999999999,-17.45605,10.19287,6.652832,80.31006000000001,-3.284912,46.42822,-3.15,-78.41666,18.09167,1
190094,0.05322266,0.6982421999999999,0.1113281,4.394531,37.8418,11.35254,81.20544,-7.108154,53.10791,16.49167,0.8833333,0.35000000000000003,1
190354,0.10498049999999999,1.309082,0.4838867,-15.74707,-5.859375,-4.089355,79.27185,-10.82153,57.78259,12.725,4.891667,0.875,1
190654,-0.1484375,0.7988280999999999,0.1630859,-8.422852,-26.7334,3.2958979999999998,77.71179,-6.591797,54.95911,-1.35,-77.1,13.88333,1
190954,0.09130859,0.7216796999999999,0.2841797,14.77051,25.02441,18.79883,80.58472,-3.66394,57.20032,2.258333,-79.65,13.68333,1
191224,0.09912109000000001,0.796875,0.2041016,-3.540039,28.93066,5.92041,79.48059,-5.608521,63.59985,20.26667,-5.725,4.683333,1
191484,-0.06787109,0.8481445,0.20947269999999998,13.30566,26.24512,-27.16064,80.56824,-7.234497,66.64856,11.85,2.583333,-1.308333,1
191784,0.1523438,1.197266,-0.06884766,8.972168,-0.9155272999999999,-7.995605,76.67908,-5.350342,59.63379,18.15833,7.666667,2.3,1
192124,0.06396484,0.6586913999999999,0.17382809999999999,7.873535,21.66748,21.05713,80.17273,-5.657959,61.25977,13.56667,3.216667,-1.875,1
192324,0.13916019999999998,1.263184,-0.14306639999999998,22.58301,-1.220703,5.432129,79.18945,-6.459961,65.69275,14.93333,13.70833,-0.1666667,1
192544,-0.109375,0.65625,0.21435549999999998,-19.22607,-23.98682,-19.53125,79.05762,-5.888672,65.34668,5.108333,-80.1,12.15,1
192774,0.168457,1.216797,-0.06005859,0.793457,5.615234,-1.342773,76.62415,-5.740356,61.3092,12.475,11.15833,4.941667,1
193044,-0.0078125,0.9077147999999999,0.3037109,7.324219,-2.563477,28.32031,79.62341,-3.3673100000000002,63.20435,11.69167,3.758333,0.04166667,1
193264,0.1293945,1.287109,0.105957,21.1792,3.723145,16.78467,78.68958,-7.25647,71.22437,6.3,-80.35833,12.60833,1
193494,0.15136719999999998,1.097168,0.3227539,16.47949,32.22656,-20.93506,79.01917,-10.60181,74.05884,12.24167,4.716667,-2.0,1
193754,0.02001953,0.715332,0.1074219,-18.43262,-2.929688,-3.234863,76.76697,-7.03125,77.51953,19.06667,3.691667,0.15833329999999998,1
193964,-0.05615234,1.166992,0.3974609,-14.5874,8.666992,25.14648,77.34924,-4.031982,75.91003,10.06667,-78.91666,10.68333,1
194204,0.1357422,0.7138671999999999,0.1362305,-1.6479489999999999,49.62158,15.80811,77.77771,-8.734131,84.15527,16.5,1.141667,2.9,1
194494,0.1918945,1.287598,0.5239258,-8.056641,-8.972168,-0.793457,76.21765,-11.47522,90.03296,13.14167,-76.94167,8.416667,1
194764,-0.0546875,0.8447266,0.21435549999999998,-7.873535,-24.04785,5.187988,74.84985,-6.729126,86.69861,13.125,-76.09167,7.941667,1
195064,0.17822269999999998,1.010254,0.5249022999999999,-3.601074,31.00586,-22.52197,77.64587,-3.537598,87.46765,12.15833,4.433333,2.341667,1
195304,0.05957031,0.8945312999999999,0.1015625,5.859375,20.38574,0.4882813,76.94275,-7.701416,96.41602,18.225,-77.9,8.425,1
195574,-0.015136720000000001,0.8061522999999999,0.2592773,8.178711,40.46631,-23.37646,77.6239,-9.091187,100.2228,19.33333,-77.39167,7.433333,1
195890,0.2475586,1.164551,-0.0859375,11.65771,13.91602,-2.075195,73.51501,-7.163086,99.33289,21.54167,-76.43333,6.075,1
196194,0.07177734,0.6914062999999999,0.159668,10.68115,29.47998,24.84131,77.23938,-6.37207,106.1499,13.325,3.341667,-1.158333,1
196564,-0.00390625,1.015625,0.6162109,-20.93506,-1.7700200000000001,23.07129,76.63513,-10.25574,111.8079,14.85833,5.491667,0.725,1
196754,-0.03759766,0.6835937999999999,0.203125,-5.615234,-0.793457,-18.06641,76.39893000000001,-6.16333,113.1482,13.45,2.05,-2.691667,1
196954,0.03271484,1.269043,0.1191406,11.16943,-7.446289,-4.516602,73.64685,-5.701904,110.6323,20.85,16.975,2.425,1
197154,-0.12451169999999999,1.0854489999999999,0.3461914,21.11816,16.35742,19.89746,76.28357,-2.554321,112.7472,10.875,3.908333,0.55,1
197374,0.09570313,1.09375,-0.03173828,20.69092,2.01416,0.6713867,76.04736,-5.240479,118.1415,30.61667,-80.00833,9.625,1
197604,0.1489258,1.0625,0.42822269999999996,-6.347656,11.59668,-8.361816,75.86609,-9.492188,116.6748,11.35833,3.858333,-0.44166669999999997,1
197884,-0.08496094,0.7714844,0.12451169999999999,-17.51709,-10.98633,-12.69531,74.48181,-5.097656,118.1305,17.38333,1.758333,0.1166667,1
198110,-0.1333008,1.341309,0.4326172,-11.90186,-0.9765625,8.972168,74.95422,-1.51062,116.7957,32.20833,-78.40833,8.458333,1
198374,0.06982422,0.7016602,0.1362305,-0.7324219,28.13721,17.57813,75.87708,-5.625,120.7947,13.825,0.9416667,1.675,1
198604,0.2431641,1.29834,0.5175780999999999,-12.146,6.713867,2.197266,74.44336,-9.415283,123.7885,31.10833,-79.44167,9.483334,1
198874,-0.09765625,0.6948242,0.1459961,-9.216309,-29.35791,-19.34814,74.63013,-4.411011,123.75,13.48333,3.108333,-0.6333333,1
199274,0.03857422,0.765625,0.3632813,7.263184,1.525879,19.77539,75.22339,-2.219238,121.5363,12.225,2.541667,0.8083332999999999,1
199534,0.02001953,1.149902,-0.1518555,28.80859,1.159668,3.723145,74.15771,-4.031982,126.3647,34.56667,-79.99167,10.20833,1
199804,-0.1445313,0.6904296999999999,0.1855469,-8.666992,-27.64893,-21.48438,74.74548,-3.790283,125.2716,35.0,-79.09167,9.158334,1
200104,0.1923828,1.240234,0.015136720000000001,4.211426,17.63916,-2.380371,71.72974,-4.042969,119.8114,8.858334,13.69167,4.758333,1
200364,0.1279297,0.6625977,0.18994139999999998,-1.8310549999999999,27.28271,20.44678,75.48706,-3.22998,122.6788,13.35,2.841667,-0.7583333,1
200634,-0.1000977,0.6967772999999999,0.6928711,-26.00098,-15.31982,29.11377,74.60815,-7.283936,127.8699,15.125,5.5,1.091667,1
201004,0.04443359,1.321289,0.1450195,2.929688,-6.408691,-9.58252,70.91675,-4.301147,123.6511,34.89167,-79.05,8.058333,1
201244,0.07373047,0.9379883,0.3242188,12.02393,-4.455566,17.45605,73.54797,-0.4724121,124.9805,11.125,3.783333,0.775,1
201504,0.1103516,0.8085937999999999,0.12402339999999999,-9.521484,15.44189,5.737305,73.99292,-3.240967,127.9797,22.04167,2.133333,1.3333329999999999,1
201724,0.1176758,1.032715,0.33251949999999997,12.87842,10.98633,-27.46582,73.6908,-6.190796,128.2764,36.05,-81.2,10.675,1
201954,0.05810547,0.6630859,0.159668,-18.43262,-39.24561,-5.737305,72.39441,-2.680664,124.2719,20.8,3.166667,0.525,1
202194,0.0859375,1.672852,1.056641,-0.42724609999999996,36.8042,-42.72461,72.73499,-1.757813,121.4539,16.8,6.825,0.3083333,1
203404,0.07226563,0.6821288999999999,0.2509766,24.71924,2.685547,20.99609,75.44312,-1.428223,126.6064,12.66667,2.266667,0.31666669999999997,1
203630,0.03271484,1.327637,-0.15820309999999999,26.7334,2.441406,6.286621,74.32251,-3.510132,132.4731,38.36666,-81.80833,12.1,1
203904,-0.05029297,0.75,0.2773438,8.544922,9.887695,-26.61133,73.99292,-5.289917,132.5061,11.88333,2.633333,-1.233333,1
204154,0.1948242,1.246582,0.05029297,6.04248,10.49805,-3.051758,70.67505,-3.087158,125.2332,36.95,-79.1,7.85,1
204444,0.1484375,0.6464844,0.1616211,3.173828,15.99121,22.09473,74.80591,-2.5927729999999998,125.6287,13.28333,2.283333,-1.641667,1
204754,-0.15869139999999998,1.04834,0.7197266,-43.64014,-10.68115,31.49414,74.53125,-5.828247,129.8035,36.1,-82.825,9.475,1
205054,0.02978516,0.7324219,0.1176758,-17.08984,-36.37695,-9.82666,73.06458,-2.164307,124.0466,36.10833,-80.8,7.466667,1
205324,0.27880859999999996,1.936523,0.9394530999999999,-23.86475,59.14307,-46.38672,72.57568,-1.104126,122.4316,17.175,6.725,-2.5,1
205574,0.20166019999999998,0.7402344,0.1264648,2.319336,11.35254,3.234863,75.23438,-2.856445,124.2883,37.025,-82.56667,9.425,1
205884,0.08789063,1.130371,0.4775391,-25.75684,-5.67627,-8.361816,73.46008,-6.152344,125.2551,11.175,3.616667,1.608333,1
206184,-0.08398438,1.046875,0.09472656,-5.981445,-27.52686,1.525879,71.77368,-3.010254,117.4274,30.36667,0.675,1.8666669999999999,1
206514,0.05175781,0.6308594,0.2983398,19.77539,7.385254,25.6958,74.26208,-0.7965088,121.8658,13.25833,2.458333,0.05,1
206764,-0.004394531,1.291016,-0.1831055,30.27344,-15.68604,-9.70459,73.89954,-3.7683109999999997,126.6998,36.38334,-82.59167,9.958333,1
206994,-0.009765625,0.7612304999999999,0.2685547,15.80811,11.59668,-31.06689,74.41589,-4.295654,124.2389,12.45833,2.783333,-1.15,1
207244,0.1557617,1.277832,-0.08349609,6.652832,12.87842,-2.13623,71.65833,-2.69165,118.9764,33.975,-79.36667,7.191667,1
207474,-0.03222656,0.8320312999999999,0.30126949999999997,16.05225,-17.15088,28.93066,73.526,0.2801514,121.701,10.94167,3.291667,0.875,1
207754,0.08300781,0.8022461,0.1918945,-9.399414,22.46094,3.90625,74.33899,-2.9168700000000003,124.0851,23.775,1.391667,2.266667,1
207974,-0.2558594,1.351563,0.7749022999999999,-41.07666,5.432129,47.79053,75.39917,-5.6524659999999995,126.8097,16.40833,6.766667,0.7916667,1
208194,-0.00390625,0.7285155999999999,0.09814453000000001,-17.82227,-24.96338,-3.723145,73.526,-2.966309,120.8496,19.85,2.225,-0.9166667,1
208454,0.2192383,1.5073239999999999,0.9697266,-24.59717,46.75293,-33.99658,72.6416,-1.7028809999999999,119.6191,16.49167,6.6,-0.7000000000000001,1
208664,0.06005859,0.7304687999999999,0.09326172,-1.6479489999999999,25.20752,8.544922,74.78943,-3.823242,125.4913,36.38334,-81.85,7.958333,1
208924,0.04980469,1.763672,0.7260742,-40.2832,9.216309,48.82813,74.69055,-4.685669,127.1887,17.51667,7.041667,-1.658333,1
209194,-0.11083979999999999,0.7246094,0.13134769999999998,-12.81738,-33.81348,-9.094238,72.65259,-2.362061,125.0134,36.53333,-80.28333,6.05,1
209484,-0.2041016,1.333496,0.4414063,-15.13672,-5.371094,5.92041,74.02039,1.71936,120.8276,11.66667,4.008333,2.65,1
209804,0.09960938,0.9291992,0.008300781,1.464844,25.20752,3.662109,74.45435,-1.972046,124.9915,38.48333,-82.93333,9.091666,1
210114,-0.1000977,0.6938477,0.2480469,5.432129,11.65771,-21.78955,74.99817,-4.048462,126.0626,11.725,2.675,-1.816667,1
210414,0.07324219,1.458984,-0.1616211,31.73828,-0.1831055,-9.460449,72.30652,-2.2796629999999998,120.8112,19.05833,10.66667,-3.95,1
210754,0.09716797,0.7182617,0.1337891,2.624512,22.46094,21.24023,74.77844,-2.636719,123.1732,13.91667,2.45,-0.9083334,1
210980,-0.03173828,0.7773437999999999,0.6323242,-24.53613,-7.446289,18.24951,73.74023,-6.542358,126.8372,34.45,-81.21667,8.966666,1
211234,-0.09423828000000001,0.7392578,0.1992188,-10.49805,-9.277344,-23.49854,73.74023,-2.631226,126.6064,13.425,2.458333,-2.741667,1
211474,0.20605469999999998,1.054688,0.8393554999999999,34.30176,-10.68115,-42.72461,72.45483,-0.24719239999999998,122.2009,36.79167,-78.475,7.091667,1
211714,0.1411133,0.6821288999999999,0.22509769999999998,2.380371,9.82666,26.24512,74.24561,-2.125854,121.7834,35.475,-79.475,7.0,1
211954,0.1328125,1.253418,0.09716797,12.3291,-0.3662109,5.371094,72.92175,-2.9608149999999998,126.5131,25.73333,7.666667,-1.775,1
212204,0.23291019999999998,1.111328,0.45947269999999996,-0.3662109,-7.080078,-6.103516,73.10852,-6.915894,125.8154,10.35,5.241667,-0.3916667,1
212414,-0.09082031,0.9624022999999999,0.1728516,-1.037598,-31.06689,1.098633,70.35095,-2.845459,121.9977,35.0,-78.43333,3.983333,1
212654,-0.06396484,1.345215,0.6582030999999999,-18.12744,-9.094238,-2.01416,73.14697,0.5603026999999999,119.4873,11.375,5.166667,1.941667,1
212904,0.07373047,0.8671875,0.08203125,10.74219,2.746582,0.6103516,72.98767,-3.032227,124.53,24.05833,-1.308333,4.95,1
213214,0.004394531,0.7358397999999999,0.2724609,7.751465,26.12305,-24.96338,75.06409,-5.103149,124.931,36.08333,-83.60833,6.941667,1
213514,0.05908203,1.212402,-0.1728516,8.239746,9.887695,-6.591797,72.07031,-3.175049,121.1133,36.00834,-82.45,5.808333,1
213784,0.09472656,0.7509766,0.2875977,9.94873,7.141113,22.33887,74.91577,-1.137085,122.0526,12.81667,2.766667,0.3916667,1
214034,0.09130859,1.035645,-0.1450195,22.33887,-22.09473,-2.746582,73.89404,-3.153076,129.6606,38.36666,-84.79166,10.00833,1
214324,-0.06494141,0.7685546999999999,0.1376953,1.586914,-18.49365,-20.87402,74.55322,-3.290405,130.1056,13.025,2.691667,-3.05,1
214634,0.2460938,0.9174804999999999,0.9096679999999999,25.26855,24.4751,-50.04883,72.83936,-0.4284668,125.8704,38.9,-81.06667,8.683333,1
214944,0.109375,0.7758788999999999,0.1533203,-14.28223,31.55518,4.272461,73.92151,-2.779541,128.2214,20.73333,2.583333,1.35,1
215314,-0.184082,0.6665038999999999,0.2822266,-2.197266,-19.59229,-23.62061,74.46533,-3.411255,128.2104,36.5,-80.94167,10.03333,1
215564,-0.1020508,1.060547,0.1611328,-7.873535,-18.79883,-2.746582,71.521,-2.828979,122.1515,28.85833,8.058333,0.9083334,1
215824,0.07763672,0.6699219,0.2675781,18.37158,3.4790039999999998,25.39063,74.40491,-1.213989,124.519,36.03333,-78.95,9.583333,1
216064,0.1074219,0.9868163999999999,0.05957031,12.51221,15.74707,-2.441406,73.33923,-2.625732,128.3643,31.99167,2.783333,4.883333,1
216304,0.2504883,1.275391,0.4326172,-10.25391,6.774902,4.760742,74.60815,-5.751343,129.1937,12.10833,5.158333,-0.55,1
216514,0.0009765625,0.8862304999999999,0.1337891,-4.882813,-37.35352,-2.502441,72.27905,-2.340088,123.4534,34.7,-77.39167,8.95,1
216764,-0.21435549999999998,1.212891,0.590332,-18.37158,8.728026999999999,8.056641,74.29504,0.9063721,125.5243,12.95833,5.225,2.191667,1
217040,0.04052734,0.8212891,0.1538086,-6.103516,19.53125,-0.9155272999999999,73.76221,-2.455444,128.6774,37.3,-78.59167,10.51667,1
217304,0.2036133,1.020508,0.6660155999999999,-11.59668,-5.92041,10.92529,74.03137,-6.196289,128.8861,14.025,4.866667,0.65,1
217534,0.009765625,0.7563477,0.2070313,-17.82227,-20.87402,-2.01416,71.59241,-1.669922,126.6394,36.61666,-76.175,8.2,1
217834,0.2822266,0.8579102,0.8447266,16.41846,4.577637,-47.97363,72.73499,0.3076172,125.5627,16.15833,5.608333,3.325,1
218074,0.1254883,0.824707,0.1103516,-6.469727,26.36719,3.723145,74.42139,-2.894897,128.0896,20.9,2.441667,2.216667,1
218344,0.1538086,1.1010739999999999,0.40283199999999997,4.150391,-0.24414059999999999,-15.56396,73.9325,-5.910645,129.3311,36.55833,-78.71667,8.783334,1
218614,0.04052734,0.7353516,0.1264648,-21.24023,-37.78076,-16.35742,73.21838,-2.06543,126.0516,15.025,2.733333,0.008333334000000001,1
218874,-0.14697269999999998,1.29541,0.5644530999999999,-18.79883,-2.319336,-4.394531,73.21289,0.8184813999999999,122.2888,11.95,5.108333,2.241667,1
220164,0.08349609,0.8149413999999999,0.1484375,-11.1084,36.37695,1.098633,73.27332,-3.076172,129.3091,21.475,1.541667,-0.08333334,1
220494,0.0625,0.9824219,0.3271484,12.75635,24.41406,-23.4375,73.65784,-6.459961,131.358,11.94167,4.133333,-1.283333,1
220834,-0.03125,1.211914,0.18261719999999998,4.699707,-16.54053,-1.525879,70.51025,-3.729858,128.2434,28.425,16.21667,0.225,1
221044,-0.1157227,0.8745117,0.45117189999999996,-4.394531,6.103516,19.22607,72.27356,-0.368042,130.0671,11.73333,4.133333,1.55,1
221254,0.06933594,0.7329102,0.1518555,0.12207029999999999,45.10498,10.25391,73.45459,-3.773804,136.1755,19.38333,0.5833332999999999,3.583333,1
221464,0.1538086,1.098145,0.4287109,4.211426,16.05225,-5.187988,73.05908,-7.03125,141.6797,41.55,-83.38333,10.60833,1
221694,-0.01611328,0.7016602,0.1230469,-14.09912,-12.51221,-9.277344,72.87781,-2.999268,142.7289,15.725,2.45,-1.391667,1
221944,-0.1674805,1.614746,0.14257809999999999,23.13232,-0.42724609999999996,-24.23096,71.56494,-2.658691,140.4932,21.15,8.025,-0.1916667,1
222164,0.02587891,0.7543945,0.1499023,-1.037598,49.56055,18.67676,74.66309,-2.790527,148.4802,46.8,-84.13333,14.19167,1
222414,0.21875000000000003,1.303711,-0.1342773,33.56934,8.239746,17.51709,74.90479,-2.955322,153.6108,17.34167,10.35,-1.516667,1
222674,-0.01953125,0.8149413999999999,0.2563477,-6.591797,57.06787,-16.8457,75.49255,-4.647217,160.2686,13.21667,2.058333,-1.741667,1
222894,0.09472656,1.123535,0.05175781,-0.3051758,10.86426,-7.385254,70.19714,-2.15332,162.0209,9.8,9.408334,6.908333,1
223174,0.105957,0.699707,0.2436523,-1.037598,27.89307,29.84619,73.59192,-1.933594,165.2234,52.69167,-85.79166,21.275,1
223464,0.16259769999999998,1.2260739999999999,0.10644529999999999,6.164551,-1.159668,3.2958979999999998,72.36694,-2.27417,169.7058,29.075,14.11667,-2.308333,1
223714,-0.13916019999999998,0.7006836,0.3076172,9.033203,-7.263184,-27.9541,73.8446,-2.076416,172.5513,11.45833,2.35,-1.791667,1
223984,-0.08935547,1.631836,0.10888669999999999,20.69092,-0.12207029999999999,-20.20264,71.44409,-0.7910155999999999,165.8057,54.50834,-84.24167,20.76667,1
224270,0.06738281,0.7055663999999999,0.11474609999999999,10.86426,30.82275,16.54053,73.70728,-1.8402100000000001,167.6129,53.73333,-86.08334,22.65833,1
224570,0.1401367,1.331543,0.4794922,-10.55908,8.361816,-6.835938,74.27856,-5.180054,171.3318,51.84167,-88.36667,24.84167,1
224944,-0.04052734,0.8325195,0.19384769999999998,-14.22119,-20.56885,3.662109,71.96594,-1.7028809999999999,167.8821,22.16667,-3.291667,3.833333,1
225134,-0.10693359999999999,1.032227,0.5175780999999999,6.774902,11.84082,-7.080078,74.52576,2.202759,168.327,13.64167,5.616667,0.8416665999999999,1
225364,0.09082031,0.7495117,0.137207,6.530762,21.54541,21.3623,75.59143,-1.483154,170.8099,13.38333,2.1,-0.35000000000000003,1
225574,-0.24511719999999998,0.8579102,0.6909179999999999,-46.20361,1.098633,25.45166,75.77271,-4.432983,172.7765,52.66667,-88.825,26.75833,1
225804,-0.07617188,0.7382812999999999,0.20214839999999998,-10.62012,-5.187988,-20.32471,74.71802,-2.224731,173.1665,12.75833,1.75,-2.716667,1
226074,-0.04638672,1.244141,0.2612305,-9.216309,-5.737305,-0.793457,71.04309,-1.911621,169.0027,26.775,18.075,0.9583332999999999,1
226304,-0.1767578,1.193848,0.2680664,25.02441,-2.319336,14.28223,73.79517,1.268921,167.3383,10.73333,4.016667,0.8583333999999999,1
226524,0.11669919999999999,1.225098,0.1118164,16.72363,6.408691,6.774902,73.40515,-2.230225,173.7653,33.74166,11.38333,-0.48333329999999997,1
226790,-0.22119139999999998,0.6533203,0.2670898,-2.258301,-6.896973,-26.18408,75.11902,-2.658691,174.7046,54.29167,-87.475,26.525,1
227054,-0.06396484,1.036621,0.1523438,4.272461,-28.01514,0.0,71.10352,-2.037964,167.7063,32.1,11.54167,2.141667,1
227314,0.1040039,0.6909179999999999,0.2646484,9.216309,16.23535,29.54102,74.91028,-0.13732909999999998,169.3048,55.06667,-86.03333,25.00833,1
227614,0.1152344,2.207031,0.6254883,-13.18359,-26.18408,62.62207,74.83337,-2.351074,172.9028,53.44167,-87.81667,25.85,1
227884,-0.08691406,0.6904296999999999,0.315918,4.333496,-18.61572,-25.02441,72.97119,-2.894897,169.162,10.81667,2.525,-0.9833333999999999,1
228134,-0.1298828,1.775391,0.01806641,20.62988,3.540039,-11.77979,72.44385,-1.005249,164.2896,55.125,-84.23333,22.11667,1
228424,0.08837891,0.7089844,0.12451169999999999,-2.502441,37.71973,14.70947,74.84985,-2.25769,167.3932,13.51667,2.241667,0.8166667,1
228744,0.06542969,1.039551,0.6376953,-18.18848,-6.286621,20.32471,73.94897,-6.311646,172.8864,13.34167,4.625,0.6083333,1
229044,0.0,0.8344727,0.1557617,-12.81738,-33.44727,-0.12207029999999999,72.25708,-1.433716,167.7063,19.56667,0.01666667,-0.09166667,1
229414,0.1484375,0.6577147999999999,0.1884766,3.234863,26.30615,29.47998,75.43213,-1.565552,167.2998,54.9,-86.79166,24.775,1
229674,0.1123047,1.282715,0.1611328,-9.277344,-11.41357,6.164551,73.11401,-2.076416,170.7495,26.83333,12.00833,-2.65,1
229924,-0.22216799999999998,0.7519530999999999,0.2397461,-9.338379,-16.8457,-24.29199,73.33374,-2.944336,171.0461,54.58333,-86.55833,24.09167,1
230164,-0.09082031,1.14502,0.2109375,5.981445,-15.31982,-5.92041,70.93323,-2.6477049999999998,165.3717,26.31667,18.45833,0.2916667,1
230394,-0.09423828000000001,0.9814453,0.38085939999999996,5.126953,-0.12207029999999999,14.83154,73.14697,0.5932617,166.3495,11.325,4.141667,0.6000000000000001,1
230614,0.1342773,1.108887,0.06640625,13.24463,3.662109,3.723145,73.30078,-3.186035,174.1388,54.98333,-88.09167,27.2,1
230874,0.07763672,1.1845700000000001,0.4165039,0.8544921999999999,5.92041,-7.446289,75.31677,-6.6687009999999995,174.4299,12.225,4.316667,-0.40833329999999995,1
231140,-0.04296875,0.8955078,0.1303711,-12.81738,-30.94482,4.577637,72.20764,-3.290405,167.3108,53.14167,-86.525,21.88333,1
231404,-0.17382809999999999,1.215332,0.5854492,-18.49365,12.93945,-0.4882813,74.00391,0.5987549,169.0741,12.65,5.533333,1.808333,1
231634,0.06005859,0.8476562999999999,0.07958984,-4.943848,26.24512,5.615234,74.05884,-3.4552,175.545,54.84167,-88.81667,28.48333,1
231924,-0.1845703,0.7998046999999999,0.6743163999999999,-24.96338,7.751465,21.05713,75.13,-6.630249,176.781,14.75,4.55,0.8,1
232174,0.06640625,0.8051758,0.1259766,-9.521484,-39.0625,-0.1831055,73.46008,-2.070923,172.5677,20.00833,2.175,-0.2083333,1
232444,-0.168457,1.099121,0.2524414,14.16016,-11.04736,18.12744,74.39941,0.9722900000000001,171.3263,56.91667,-86.80833,26.60833,1
232714,0.1635742,0.7470703,0.140625,-12.81738,28.50342,6.164551,74.56421,-2.427979,174.5398,20.14167,1.55,1.058333,1
232964,0.3837891,1.193848,0.4379883,-2.807617,-4.02832,-13.79395,72.94922,-5.608521,177.0886,53.86666,-89.86667,28.80833,1
233274,-0.0009765625,0.9111328,0.1420898,5.126953,-42.17529,0.8544921999999999,71.82861,-1.604004,167.0197,25.38333,-1.375,2.85,1
233644,0.1298828,0.7788086,0.159668,13.61084,11.96289,15.99121,76.13525,-2.285156,166.1682,54.775,-87.71667,25.19167,1
233894,0.001953125,1.041504,-0.1694336,20.38574,5.493164,11.77979,76.36047,-2.867432,170.8923,16.24167,9.566667,-2.041667,1
234154,-0.08691406,0.7998046999999999,0.1611328,-6.286621,0.5493163999999999,-11.23047,75.38269,-4.207764,177.4896,55.08333,-90.18333,30.475,1
234384,0.0004882813,1.044922,0.08447266,1.037598,-22.27783,17.21191,72.47131,-5.537109,175.0671,25.13333,3.433333,3.541667,1
234624,-0.08984375,1.186035,0.5556641,0.0,45.71533,12.26807,74.93774,-1.477661,177.5006,14.125,5.291667,1.55,1
234854,0.0,0.9394530999999999,0.09472656,24.04785,95.58105,9.521484,76.53625,-5.438232,-151.3696,52.36666,-95.675,50.44167,1
235094,-0.08007813,1.157227,0.5561522999999999,-22.09473,69.0918,44.12842,77.6239,-7.695923,-138.9551,19.23333,4.941667,-0.7916667,1
235370,-0.1689453,0.7954102,0.1118164,-6.713867,67.32178,23.37646,71.7627,-4.449463,-117.2351,38.625,-99.79166,61.93333,1
236614,-0.046875,1.143066,0.06591797,6.225586,-21.11816,2.807617,72.8833,-5.548096,-32.08557,31.625,21.025,-4.975,1
236864,0.03466797,0.7626953,0.2646484,17.51709,59.93652,40.1001,75.31677,-3.883667,-21.47278,-11.1,-89.5,50.81667,1
237124,0.12744139999999998,0.8798828,0.1713867,-2.502441,35.40039,-1.586914,74.6521,-5.597534,-11.07422,29.35,0.4583333,5.691667,1
237394,-0.0703125,0.7509766,0.3359375,1.342773,15.68604,-27.771,76.2616,-6.091919,-9.926147,-13.21667,-84.53333,44.975,1
237684,0.08203125,1.310547,-0.3149414,22.82715,-0.24414059999999999,-20.44678,75.03113,-2.680664,-14.52942,17.10833,7.525,3.608333,1
237994,0.1025391,0.6728516,0.121582,1.953125,32.77588,14.03809,78.22266,-2.1698,-9.321899,-7.325,-85.70834,46.15833,1
238284,0.1337891,1.330566,0.6708984,-16.11328,-26.00098,14.83154,77.6239,-5.537109,-6.251221,14.05,4.75,0.5916667,1
238604,-0.06005859,0.7548828,0.1435547,-17.33398,-30.94482,-1.464844,74.9707,-1.560059,-9.860229,-6.158333,-85.83334,49.525,1
238914,0.1132813,0.8242187999999999,0.3432617,3.234863,-5.615234,23.37646,75.58594,0.6262207,-10.83252,11.225,2.883333,1.058333,1
239284,-0.27001949999999997,0.7368163999999999,0.7133788999999999,-37.04834,0.0,39.36768,74.66309,-5.092163,-5.196533,-12.75,-84.025,47.23333,1
239534,-0.06103516,0.7602538999999999,0.1967773,-1.89209,-32.59277,-28.9917,74.79492,-3.477173,-7.630005,11.475,2.058333,-1.541667,1
239794,0.2719727,1.064453,1.010742,-7.141113,33.44727,-44.7998,73.92151,-0.1483154,-14.64478,-7.116667,-88.85833,50.325,1
240024,0.1518555,0.6699219,0.1791992,-1.220703,11.16943,20.20264,76.71753,-1.593018,-13.51868,11.71667,3.058333,-0.9166667,1
240265,0.09863281,1.293457,0.04785156,18.73779,15.80811,8.850098,75.30029,-2.307129,-8.289185,30.30833,13.575,-4.491667,1
240484,-0.17480469999999998,0.6674804999999999,0.24414059999999999,-6.04248,-16.90674,-24.41406,75.91553,-3.22998,-9.470215,-8.416667,-86.56667,48.06667,1
240724,0.0,1.265137,0.10107419999999999,-3.4790039999999998,-16.54053,-5.859375,72.66357,-2.466431,-16.00708,27.25833,17.50833,-2.916667,1
241010,0.1533203,0.5991211,0.20556639999999998,14.52637,10.80322,27.70996,75.88806,-1.082153,-14.01306,-5.858333,-88.68333,50.74166,1
241274,0.2011719,1.243652,0.04052734,15.74707,2.319336,-0.6103516,73.41614,-2.25769,-9.574585,25.575,12.31667,-10.56667,1
241504,-0.08447266,0.6977538999999999,0.2607422,3.845215,1.098633,-25.26855,74.04785,-4.191284,-10.39307,-9.65,-86.975,48.44167,1
241794,-0.10498049999999999,0.9526367,0.1157227,-14.95361,-28.50342,1.953125,71.44409,-2.817993,-14.31519,31.26667,1.65,2.616667,1
242034,0.05517578,0.6899413999999999,0.2905273,20.62988,8.117676,21.42334,74.729,-0.7690429999999999,-11.54114,11.78333,1.716667,1.308333,1
242314,0.03417969,1.5498049999999999,-0.09277344,26.18408,-11.90186,11.90186,75.43762,-2.444458,-6.630249,-7.958333,-86.51667,45.65833,1
242584,0.0034179690000000003,0.7197266,0.27880859999999996,3.051758,-4.333496,-24.59717,74.60266,-3.9990229999999998,-8.311157,11.5,2.958333,-1.158333,1
242834,0.1572266,1.2158200000000001,-0.1323242,20.26367,-5.187988,-3.356934,71.94946,-1.8731689999999999,-16.64429,-2.008333,-90.025,48.68333,1
243144,0.07763672,0.6166992,0.1542969,8.239746,18.79883,22.03369,75.39368,-2.488403,-13.85925,14.09167,2.858333,-2.475,1
243474,-0.12060549999999999,0.824707,0.7084961,-21.97266,-20.69092,23.62061,74.20715,-6.333618,-11.80481,14.34167,4.941667,2.041667,1
243784,0.01025391,0.7524413999999999,0.14306639999999998,-16.35742,-18.67676,0.793457,72.65259,-1.939087,-14.33167,20.74167,2.991667,-0.65,1
244024,0.08300781,1.230469,0.9916992,11.53564,25.08545,-45.59326,72.69104,-0.6481933999999999,-16.715700000000002,16.475,6.041667,1.391667,1
244234,0.07861328000000001,0.7055663999999999,0.1191406,-9.460449,32.53174,9.94873,74.72351,-2.076416,-14.41406,-5.7,-90.55833,52.33333,1
244494,0.3051758,1.753418,0.3833008,2.990723,0.0,39.24561,75.70129,-3.092651,-12.63977,19.53333,7.166667,-2.791667,1
244714,0.015136720000000001,0.6669921999999999,0.1367188,-13.18359,-41.07666,-17.7002,73.88306,-1.7248539999999999,-17.50671,-5.75,-91.01667,53.05833,1
244954,0.008789063,1.711914,0.0,18.37158,7.507324,-22.58301,72.67456,-2.1698,-23.04932,25.15833,9.891666,-4.008333,1
245234,-0.01318359,0.7094727,0.3046875,18.18848,3.723145,18.98193,74.51477,-0.6866455,-21.79688,12.15833,1.925,0.8083332999999999,1
245454,-0.03320313,1.129883,-0.22167969999999998,30.33447,-7.8125,-0.3662109,73.51501,-2.230225,-16.70471,15.825,13.90833,-3.116667,1
245720,-0.02734375,0.6865234,0.15136719999999998,-4.211426,-47.11914,-27.22168,74.3335,-2.208252,-19.99512,-4.95,-91.53333,54.30833,1
246034,0.2109375,1.166016,-0.2167969,11.96289,-0.3662109,-10.92529,72.89978,-2.213745,-29.18518,19.325,8.05,3.725,1
246264,0.1176758,0.6787109,0.1308594,5.065918,7.629395,13.48877,75.44312,-1.8402100000000001,-30.69031,13.575,2.583333,-2.05,1
246544,-0.2202148,0.9121094,0.6254883,-41.3208,12.93945,37.47559,74.40491,-5.465698,-27.29553,-5.308333,-91.10833,57.95,1
246804,-0.13476559999999999,0.7392578,0.2001953,-7.141113,-37.78076,-28.62549,74.0094,-3.290405,-29.22913,11.3,2.633333,-1.891667,1
247054,0.23339839999999998,1.337891,1.029297,19.04297,26.42822,-53.22266,73.29529,-1.697388,-36.50757,1.8,-94.83334,61.79167,1
247364,0.09619141,0.7270508,0.1396484,-8.361816,32.34863,15.44189,74.34998,-3.323364,-32.35474,-2.266667,-93.06667,60.15,1
247640,0.13134769999999998,1.199219,0.45898439999999996,-6.9580079999999995,5.432129,-6.652832,73.77319,-6.800537,-29.93774,-5.283333,-91.3,59.84167,1
247984,-0.06152344,0.8569336,0.08984375,-11.35254,-39.12354,1.220703,72.12524,-2.537842,-38.30383,29.55833,-0.9583332999999999,2.375,1
248234,-0.11865229999999999,1.442871,0.4960938,-15.50293,-25.81787,0.0,74.28955,0.7525634999999999,-39.01794,14.88333,5.833333,1.35,1
248450,0.2192383,0.8037109,0.1000977,-7.019043,33.08105,-1.89209,74.9707,-3.208008,-37.05139,-0.425,-93.39167,62.79167,1
248724,-0.07226563,0.9208984,0.7978516,-18.9209,-19.59229,30.0293,74.09729,-5.839233,-33.55774,15.91667,4.033333,0.8083332999999999,1
248944,-0.01806641,0.7333984,0.1132813,-15.625,-36.25488,-6.225586,72.25708,-1.658936,-40.94604,1.925,-95.13333,62.08333,1
249174,0.3818359,1.218262,1.034668,29.66309,27.9541,-58.04443,72.28455,-0.6756592,-44.11011,18.36667,5.05,1.491667,1
249454,0.1152344,0.6000977,0.1918945,6.9580079999999995,14.64844,28.68652,74.76196,-2.026978,-43.01147,12.875,2.366667,-2.158333,1
249684,0.203125,2.021973,0.6425780999999999,-57.80029,-11.35254,58.89893,73.75671,-4.504395,-40.69885,19.28333,7.516667,-0.4,1
249944,-0.2001953,0.7099609,0.2807617,-9.094238,-2.807617,-31.00586,73.41614,-4.21875,-40.86365,11.63333,2.0,-1.858333,1
250154,-0.08447266,0.8603516,0.08886719,-5.065918,-24.41406,1.342773,70.64209,-3.153076,-46.09314,30.08333,1.8333329999999999,3.458333,1
250384,0.10693359999999999,0.6445312999999999,0.27099609999999996,11.1084,25.6958,26.97754,74.6521,-1.126099,-46.26343,11.55,1.5833329999999999,-0.6583333,1
250684,0.21386719999999998,1.499512,-0.07275391,39.12354,-3.417969,16.72363,74.86084,-3.092651,-39.81995,-0.1333333,-91.01667,62.73333,1
250974,-0.02294922,0.6596679999999999,0.13476559999999999,-11.23047,-39.97803,-27.28271,74.76196,-2.087402,-42.88513,14.43333,1.875,-2.633333,1
251294,-0.10644529999999999,1.180176,0.5859375,-20.93506,-5.493164,-10.74219,74.23462,0.9558105,-48.48816,10.175,-93.25833,63.7,1
251584,0.08984375,0.8764647999999999,0.04980469,-9.277344,15.38086,1.281738,74.06433,-2.438965,-46.37329,8.425,-91.63333,63.20833,1
251870,-0.02050781,0.855957,0.2612305,1.159668,0.1831055,-23.80371,74.88831,-5.405273,-46.42822,8.408334,-90.7,64.225,1
252164,-0.02978516,0.8271484,0.06591797,-13.06152,-41.25977,-11.59668,73.17444,-2.449951,-54.6405,19.23333,0.5,-1.4583329999999999,1
253444,-0.1254883,0.9990234,0.34814449999999997,3.662109,-0.9765625,15.25879,73.74023,-0.24719239999999998,-60.47424,11.55,3.466667,0.9,1
253664,0.09179688,0.6904296999999999,0.08544922,-2.685547,30.09033,9.765625,74.82788,-3.12561,-55.86548,19.39167,1.05,0.09166667,1
253894,0.0390625,1.156738,0.42626949999999997,3.417969,12.45117,-11.41357,73.97644,-7.13562,-52.28394,9.083333,-93.23333,68.16666,1
254124,0.02148438,0.6591796999999999,0.10693359999999999,-13.85498,-38.57422,-16.23535,72.95471,-3.180542,-56.82129,16.69167,1.441667,-0.85,1
254364,-0.2036133,1.813965,0.24121089999999998,10.49805,10.55908,-28.25928,71.94397,-2.752075,-59.76563,23.425,8.533334,-3.05,1
254584,0.1044922,0.7314453,0.08300781,1.7700200000000001,31.06689,14.03809,74.80591,-3.66394,-55.48645,9.35,-94.45,68.03333,1
254844,0.203125,1.515137,0.006347656,30.70068,5.187988,11.41357,74.64111,-3.955078,-53.47046,24.45833,7.516667,-2.8083329999999997,1
255104,0.0078125,0.7685546999999999,0.2524414,1.953125,-3.4790039999999998,-30.2124,74.26758,-5.081177,-53.58032,10.76667,2.208333,-1.425,1
255324,0.04833984,1.459473,-0.1298828,17.94434,-1.586914,-7.8125,71.49902,-2.6477049999999998,-60.24902,24.05,9.05,-3.208333,1
255584,0.0859375,0.7319336,0.3349609,6.713867,16.35742,22.27783,74.25659,-1.153564,-58.20007,11.13333,2.133333,0.3083333,1
255814,0.05957031,1.024414,-0.1733398,32.4707,-22.27783,4.760742,72.29004,-3.2958979999999998,-52.17957,5.858333,-94.75833,66.25833,1
256084,0.03417969,0.7915038999999999,0.2304688,10.13184,18.98193,-31.06689,73.22388,-5.608521,-52.61353,10.8,3.625,-2.383333,1
256324,0.1420898,1.144531,-0.1650391,23.98682,8.605957,-3.173828,69.47205,-3.158569,-59.89746,11.76667,-96.73333,65.75,1
256614,0.1201172,0.6831054999999999,0.1230469,7.507324,45.04395,34.85107,73.67432,-2.807007,-54.67346,13.6,2.25,-0.3083333,1
256934,-0.02539063,1.278809,0.6308594,-26.42822,-27.16064,17.82227,72.55371,-7.075195,-50.17456,3.733333,-93.29166,65.85,1
257244,-0.02050781,0.7812500000000001,0.09814453000000001,-13.85498,-49.98779,-6.774902,71.09253,-3.03772,-57.63977,23.1,-2.758333,4.55,1
257574,0.1459961,0.5986328,0.2807617,10.86426,6.835938,18.24951,73.22937,-1.3623049999999999,-59.25476,10.425,1.908333,0.1416667,1
257874,0.12207029999999999,1.250488,-0.2119141,39.00146,3.112793,1.403809,72.9657,-3.14209,-52.20703,23.03333,10.35833,-1.025,1
258124,-0.0546875,0.6440429999999999,0.19433589999999998,-12.81738,-36.56006,-21.24023,72.46582,-2.768555,-53.36609,7.683333,-95.18333,64.91666,1
258354,0.18994139999999998,1.281738,-0.2001953,23.07129,3.112793,-1.953125,70.33997,-2.537842,-58.46924,25.65,11.08333,-2.991667,1
258594,0.06982422,0.7099609,0.2719727,16.47949,4.455566,16.54053,73.2074,-0.5493163999999999,-57.79907,11.15,1.825,1.258333,1
258814,0.1152344,1.189453,-0.2646484,33.81348,-14.34326,1.281738,73.70728,-2.735596,-52.95959,6.7,-94.63333,66.78333,1
259054,0.0009765625,0.809082,0.2592773,3.845215,4.272461,-27.28271,73.35571,-4.592285,-52.78931,11.175,2.433333,-1.4583329999999999,1
259334,-0.02441406,0.7954102,0.11669919999999999,-16.54053,-28.25928,-1.708984,70.82886,-2.06543,-58.44727,20.79167,-3.425,2.525,1
259554,0.04589844,0.7529296999999999,0.31005859999999996,4.150391,10.0708,21.24023,72.23511,-0.3131104,-57.63977,11.46667,2.016667,0.7083332999999999,1
259820,-0.03466797,1.138672,-0.1552734,27.03857,-18.73779,1.708984,71.87805,-2.411499,-50.34485,5.666667,-94.93333,65.23333,1
260124,-0.01025391,0.7910155999999999,0.2739258,7.202148,10.43701,-22.15576,72.1582,-4.421997,-50.48767,11.68333,2.858333,-0.44166669999999997,1
260374,0.1992188,1.20752,-0.11474609999999999,-6.9580079999999995,6.469727,1.7700200000000001,70.00488,-2.466431,-59.83704,19.39167,8.516666,4.7,1
260644,0.12255859999999999,0.6171875,0.12402339999999999,8.544922,32.65381,23.74268,73.71277,-1.8731689999999999,-56.07971,9.175,-95.51667,66.425,1
260904,0.05175781,1.116211,-0.056640630000000004,18.31055,-15.13672,0.42724609999999996,72.99316,-2.087402,-51.03699,26.14167,15.01667,-5.325,1
261164,-0.004882813000000001,0.59375,0.1572266,-0.6103516,-41.07666,-32.16553,72.724,-2.515869,-56.90918,10.15,-95.79166,65.45,1
261474,0.5659179999999999,0.5195313,0.6386719,49.86572,36.43799,-42.66357,72.18567,0.9832763999999999,-60.08423,14.95,5.05,1.208333,1
261794,0.1645508,0.824707,0.1606445,-15.31982,21.78955,6.04248,72.81738,-1.8402100000000001,-53.14636,21.25833,0.9083334,2.725,1
262104,0.048828130000000004,0.8935546999999999,0.2753906,23.25439,11.47461,-28.62549,73.7677,-4.812012,-52.82776,11.01667,2.991667,-2.241667,1
262340,0.12207029999999999,1.234863,0.09667969,-4.211426,4.577637,-4.882813,71.04858,-1.763306,-61.58936,11.94167,-96.30833,65.225,1
262594,-0.001464844,0.9853516,0.24462889999999998,12.69531,-0.3051758,33.08105,73.97644,0.6481933999999999,-60.0238,9.441667,2.841667,0.3416667,1
